t_sec,seq,imu_hz,quat_w,quat_x,quat_y,quat_z,gyro_x,gyro_y,gyro_z,accel_x,accel_y,accel_z,proj_g_x,proj_g_y,proj_g_z
0.107891826,1,0.000000000,0.999882996,-0.014162000,-0.005578000,-0.001484000,-0.000561507,-0.001914539,-0.001697210,0.118538000,-0.279312998,9.798758507,-0.011196728,0.028304131,-0.999536647
0.112930984,2,0.000000000,0.999882996,-0.014165000,-0.005585000,-0.001484000,-0.000734976,-0.002117329,0.001280094,0.116659001,-0.287119001,9.803890228,-0.011210735,0.028310109,-0.999536321
0.118001983,3,0.000000000,0.999882996,-0.014164000,-0.005590000,-0.001482000,0.001849299,-0.003129044,-0.000023771,0.120099001,-0.282092005,9.807097435,-0.011220674,0.028308116,-0.999536266
0.122523852,4,0.000000000,0.999882996,-0.014159000,-0.005595000,-0.001485000,0.000874881,-0.000881740,-0.001339854,0.118941002,-0.284675986,9.800013542,-0.011230743,0.028298069,-0.999536437
0.127618819,5,0.000000000,0.999882996,-0.014153000,-0.005601000,-0.001489000,0.003116861,-0.002645657,-0.000255656,0.116076998,-0.285484999,9.797636032,-0.011242837,0.028286008,-0.999536643
0.133105601,6,0.000000000,0.999882996,-0.014142000,-0.005601000,-0.001484000,0.004682928,0.002461071,0.003312705,0.113334998,-0.278706998,9.803260803,-0.011242663,0.028264067,-0.999537265
0.137804625,7,0.000000000,0.999882996,-0.014136000,-0.005595000,-0.001480000,-0.000445233,0.002210843,0.000989532,0.112134002,-0.282777995,9.804172516,-0.011230533,0.028252130,-0.999537739
0.142655588,8,0.000000000,0.999882996,-0.014134000,-0.005595000,-0.001475000,0.003294449,-0.002030202,0.003197687,0.115971997,-0.286116987,9.804254532,-0.011230386,0.028248187,-0.999537852
0.147900381,9,0.000000000,0.999882996,-0.014122000,-0.005602000,-0.001473000,0.004735777,-0.004282427,-0.000328942,0.115973003,-0.287317991,9.797949791,-0.011244292,0.028224192,-0.999538373
0.152530444,10,0.000000000,0.999882996,-0.014110000,-0.005610000,-0.001472000,0.002965698,-0.001216844,0.000067195,0.113609001,-0.286080003,9.807154655,-0.011260227,0.028200182,-0.999538872
0.157597571,11,0.000000000,0.999882996,-0.014109000,-0.005612000,-0.001472000,-0.001494700,0.001116156,0.000026546,0.116723999,-0.289386004,9.807049751,-0.011264223,0.028198176,-0.999538883
0.162848860,12,0.000000000,0.999882996,-0.014117000,-0.005610000,-0.001474000,-0.005371827,0.000237574,-0.001836139,0.113505997,-0.283917010,9.801054955,-0.011260304,0.028214158,-0.999538476
0.173622452,14,0.000000000,0.999882996,-0.014143000,-0.005609000,-0.001483000,0.001002569,-0.000009425,-0.001046133,0.116580002,-0.278912008,9.793934822,-0.011258636,0.028266055,-0.999537029
0.177607288,15,0.000000000,0.999882996,-0.014133000,-0.005606000,-0.001485000,0.004572623,0.003780435,0.000433732,0.109768003,-0.281729996,9.801420212,-0.011252663,0.028246043,-0.999537662
0.184670833,16,0.000000000,0.999882996,-0.014124000,-0.005590000,-0.001482000,0.002979155,0.008342639,0.001497754,0.111639000,-0.277238011,9.811167717,-0.011220556,0.028228125,-0.999538529
0.187550658,17,0.000000000,0.999882996,-0.014111000,-0.005576000,-0.001479000,0.002788792,0.002157454,0.000237592,0.119360000,-0.279368013,9.807982445,-0.011192436,0.028202204,-0.999539576
0.192648153,18,0.000000000,0.999882996,-0.014107000,-0.005577000,-0.001478000,0.001705553,-0.000884864,-0.000580200,0.118597001,-0.283136994,9.802345276,-0.011194395,0.028194213,-0.999539779
0.201220459,19,0.000000000,0.999882996,-0.014101000,-0.005582000,-0.001479000,0.000663382,-0.003228266,0.001344567,0.115907997,-0.279112011,9.798271179,-0.011204405,0.028182188,-0.999540006
0.202755014,20,0.000000000,0.999882996,-0.014105000,-0.005592000,-0.001476000,-0.003833912,-0.003185697,0.001317444,0.106445000,-0.280458987,9.801496506,-0.011224330,0.028190191,-0.999539557
0.207861469,21,0.000000000,0.999882996,-0.014113000,-0.005593000,-0.001472000,-0.003918631,0.002749696,0.002702782,0.110078000,-0.286780000,9.803689957,-0.011226240,0.028206231,-0.999539083
0.212936979,22,0.000000000,0.999882996,-0.014119000,-0.005593000,-0.001467000,-0.000836432,-0.000393519,0.001888970,0.111501001,-0.285535008,9.803343773,-0.011226116,0.028218287,-0.999538744
0.218034922,23,0.000000000,0.999882996,-0.014117000,-0.005589000,-0.001465000,0.002563749,0.002728665,-0.000077999,0.105916001,-0.277085006,9.801964760,-0.011218055,0.028214320,-0.999538947
0.222548823,24,0.000000000,0.999882996,-0.014104000,-0.005585000,-0.001465000,0.006738524,0.000802206,0.000988240,0.105270997,-0.282572985,9.794708252,-0.011210018,0.028188336,-0.999539770
0.227615822,25,0.000000000,0.999884009,-0.014086000,-0.005581000,-0.001466000,0.006122126,0.002435066,-0.001615320,0.102801003,-0.280117989,9.799218178,-0.011202005,0.028152368,-0.999540874
0.232707845,26,0.000000000,0.999884009,-0.014074000,-0.005577000,-0.001464000,0.001635600,0.001033811,0.002121308,0.115999997,-0.278714985,9.800555229,-0.011193915,0.028128405,-0.999541639
0.237829276,27,0.000000000,0.999884009,-0.014067000,-0.005577000,-0.001462000,0.005165040,-0.001514387,-0.000724626,0.119028002,-0.281563014,9.803912163,-0.011193838,0.028114429,-0.999542033
0.242986644,28,0.000000000,0.999884009,-0.014057000,-0.005586000,-0.001464000,0.000486196,-0.003937812,0.000092398,0.113824002,-0.284749001,9.803503990,-0.011211863,0.028094384,-0.999542395
0.247523714,29,0.000000000,0.999884009,-0.014059000,-0.005596000,-0.001462000,-0.000418286,-0.002844328,0.002188695,0.112801999,-0.281946987,9.801001549,-0.011231810,0.028098375,-0.999542059
0.252612793,30,0.000000000,0.999884009,-0.014062000,-0.005596000,-0.001458000,-0.002858762,-0.000066148,0.000212127,0.114886001,-0.282339990,9.799972534,-0.011231706,0.028104419,-0.999541890
0.257645455,31,0.000000000,0.999884009,-0.014064000,-0.005598000,-0.001458000,-0.000011868,-0.000833971,-0.001010144,0.121848002,-0.287178010,9.796851158,-0.011235712,0.028108414,-0.999541733
0.262737766,32,0.000000000,0.999884009,-0.014062000,-0.005603000,-0.001462000,0.000050580,-0.001293865,-0.000776183,0.110946998,-0.280339986,9.795439720,-0.011245818,0.028104354,-0.999541733
0.267924575,33,0.000000000,0.999884009,-0.014062000,-0.005604000,-0.001463000,-0.000998119,-0.000735726,0.001018574,0.107334003,-0.273411006,9.795509338,-0.011247845,0.028104340,-0.999541711
0.273088663,34,0.000000000,0.999884009,-0.014068000,-0.005609000,-0.001462000,-0.003876516,-0.002512157,0.000153013,0.113540001,-0.280463994,9.796422958,-0.011257834,0.028116336,-0.999541261
0.277828904,35,0.000000000,0.999884009,-0.014074000,-0.005616000,-0.001459000,-0.000986966,-0.002920512,0.001172215,0.117568001,-0.281455010,9.796876907,-0.011271765,0.028128347,-0.999540766
0.282554105,36,0.000000000,0.999884009,-0.014065000,-0.005620000,-0.001456000,0.005715587,-0.001227385,0.001408341,0.118974999,-0.287732989,9.796540260,-0.011279653,0.028110372,-0.999541183
0.287927829,37,0.000000000,0.999884009,-0.014059000,-0.005621000,-0.001457000,0.000066549,0.000004346,-0.000761871,0.112485997,-0.284884989,9.801514626,-0.011281664,0.028098358,-0.999541498
0.293172911,38,0.000000000,0.999884009,-0.014056000,-0.005621000,-0.001458000,0.001524179,0.001047198,-0.000845455,0.117339998,-0.278930992,9.806221962,-0.011281684,0.028092348,-0.999541666
0.297513177,39,0.000000000,0.999884009,-0.014049000,-0.005615000,-0.001459000,0.005041785,0.003551379,0.000677711,0.109770000,-0.280355990,9.803169250,-0.011269693,0.028078357,-0.999542195
0.302828660,40,0.000000000,0.999884009,-0.014033000,-0.005606000,-0.001458000,0.005236633,0.003634264,0.000000332,0.113464996,-0.274453014,9.798975945,-0.011251619,0.028046397,-0.999543295
0.307973356,41,0.000000000,0.999885023,-0.014020000,-0.005598000,-0.001461000,0.003834314,0.003097226,-0.000814842,0.111074999,-0.276389986,9.803695679,-0.011235679,0.028020418,-0.999544204
0.312645628,42,0.000000000,0.999885023,-0.014011000,-0.005589000,-0.001461000,0.005421656,0.005521576,0.001229567,0.117025003,-0.280460000,9.806867599,-0.011217655,0.028002448,-0.999544910
0.317651282,43,0.000000000,0.999885023,-0.013999000,-0.005573000,-0.001462000,0.003181247,0.006265348,-0.002644628,0.114169002,-0.289018989,9.807213783,-0.011185651,0.027978486,-0.999545939
0.322714601,44,0.000000000,0.999885023,-0.013994000,-0.005563000,-0.001465000,-0.001452742,0.001307758,-0.000254923,0.109396003,-0.283778012,9.800374031,-0.011165724,0.027968482,-0.999546442
0.327914018,45,0.000000000,0.999885023,-0.013999000,-0.005564000,-0.001463000,-0.002215399,-0.001111880,0.002641172,0.114141002,-0.285463989,9.798616409,-0.011167682,0.027978501,-0.999546140
0.333187772,46,0.000000000,0.999885023,-0.014005000,-0.005564000,-0.001461000,-0.003926310,0.000786376,0.000466125,0.111809000,-0.289864987,9.796875000,-0.011167643,0.027990521,-0.999545804
0.337546119,47,0.000000000,0.999885023,-0.014018000,-0.005566000,-0.001458000,-0.005953562,-0.002369215,0.000939982,0.107143000,-0.290331990,9.805415154,-0.011171597,0.028016546,-0.999545031
0.342585021,48,0.000000000,0.999885023,-0.014025000,-0.005566000,-0.001459000,-0.000064944,0.002924980,-0.000995588,0.106985003,-0.281978995,9.800921440,-0.011171645,0.028030533,-0.999544638
0.347646388,49,0.000000000,0.999885023,-0.014019000,-0.005555000,-0.001459000,0.004017259,0.004965113,0.001882687,0.107977003,-0.286058992,9.798933029,-0.011149630,0.028018567,-0.999545219
0.352737451,50,0.000000000,0.999885023,-0.014012000,-0.005549000,-0.001457000,0.002084639,-0.000739129,0.000497698,0.111062996,-0.295623004,9.801117897,-0.011137555,0.028004607,-0.999545745
0.357858850,51,0.000000000,0.999885023,-0.014006000,-0.005559000,-0.001460000,0.003225787,-0.004770194,-0.002186025,0.115029000,-0.287725985,9.804253578,-0.011157620,0.027992547,-0.999545859
0.362911065,52,0.000000000,0.999885023,-0.013991000,-0.005568000,-0.001463000,0.007612410,-0.000132313,-0.000453227,0.114436999,-0.286749989,9.802750587,-0.011175657,0.027962491,-0.999546499
0.367533576,53,0.000000000,0.999885023,-0.013975000,-0.005563000,-0.001467000,0.004481761,0.004343130,-0.000149732,0.112012997,-0.286098003,9.799686432,-0.011165724,0.027930465,-0.999547505
0.372662080,54,0.000000000,0.999885976,-0.013964000,-0.005552000,-0.001467000,0.001772137,0.002106577,-0.000633240,0.115425996,-0.277727991,9.805716515,-0.011143704,0.027908526,-0.999548364
0.377765271,55,0.000000000,0.999885976,-0.013959000,-0.005557000,-0.001469000,0.002365515,-0.003877336,-0.001066169,0.107452996,-0.278358012,9.808343887,-0.011153745,0.027898490,-0.999548532
0.382827246,56,0.000000000,0.999885976,-0.013950000,-0.005567000,-0.001469000,0.002732260,-0.003459818,0.000735621,0.114878997,-0.276930988,9.812765121,-0.011173715,0.027880462,-0.999548812
0.387885092,57,0.000000000,0.999885976,-0.013955000,-0.005576000,-0.001467000,-0.005683386,-0.003041079,0.000929510,0.121138997,-0.284462005,9.809519768,-0.011191673,0.027890457,-0.999548332
0.392992924,58,0.000000000,0.999885023,-0.013966000,-0.005578000,-0.001462000,-0.003352882,0.000837915,0.001409894,0.124372996,-0.288203001,9.805956841,-0.011195554,0.027912478,-0.999547674
0.397604715,59,0.000000000,0.999885023,-0.013974000,-0.005579000,-0.001460000,-0.003717429,-0.001267668,0.001606768,0.121473998,-0.287629008,9.802459717,-0.011197521,0.027928495,-0.999547204
0.402751811,60,0.000000000,0.999885023,-0.013983000,-0.005582000,-0.001461000,-0.003101590,-0.000739095,-0.002125008,0.115979999,-0.284357995,9.798210144,-0.011203575,0.027946474,-0.999546634
0.407617014,61,0.000000000,0.999885023,-0.013985000,-0.005586000,-0.001468000,-0.000390029,0.000075712,-0.001064703,0.115180001,-0.278243005,9.795162201,-0.011211776,0.027950383,-0.999546433
0.412656844,62,0.000000000,0.999885023,-0.013981000,-0.005587000,-0.001468000,0.002253901,-0.001073028,0.001120187,0.114409000,-0.280003011,9.797187805,-0.011213763,0.027942381,-0.999546634
0.417977351,63,0.000000000,0.999885023,-0.013972000,-0.005593000,-0.001467000,0.004407672,-0.002634732,0.001247684,0.116410002,-0.283228010,9.800737381,-0.011225708,0.027924378,-0.999547003
0.422574966,64,0.000000000,0.999885023,-0.013968000,-0.005602000,-0.001463000,-0.003525617,-0.003424545,0.001846750,0.114038996,-0.279666007,9.806157112,-0.011243582,0.027916397,-0.999547025
0.428101301,65,0.000000000,0.999885023,-0.013979000,-0.005609000,-0.001459000,-0.004504381,-0.001054964,0.003168593,0.112746000,-0.276986003,9.809453011,-0.011257501,0.027938418,-0.999546253
0.434969098,66,0.000000000,0.999885023,-0.013991000,-0.005615000,-0.001458000,-0.005546621,-0.002588306,-0.002329997,0.110981002,-0.278409004,9.808057785,-0.011269507,0.027962410,-0.999545447
0.437821499,67,0.000000000,0.999885023,-0.014000000,-0.005621000,-0.001463000,-0.002176757,-0.001647399,-0.000391600,0.109623000,-0.285526991,9.812180519,-0.011281672,0.027980333,-0.999544809
0.442899890,68,0.000000000,0.999885023,-0.014000000,-0.005629000,-0.001461000,0.001563606,-0.003087243,0.001373784,0.108597003,-0.281396002,9.805983543,-0.011297613,0.027980332,-0.999544629
0.449157341,69,0.000000000,0.999885023,-0.013995000,-0.005636000,-0.001460000,0.002965751,-0.001307269,-0.000293041,0.111327000,-0.286094010,9.804244041,-0.011311570,0.027970325,-0.999544751
0.452544247,70,0.000000000,0.999885023,-0.013984000,-0.005638000,-0.001460000,0.003240064,-0.001202340,-0.001372073,0.109263003,-0.286529988,9.804821968,-0.011315537,0.027948322,-0.999545321
0.457617838,71,0.000000000,0.999885023,-0.013982000,-0.005643000,-0.001464000,-0.001975905,-0.000943281,0.001223109,0.109746002,-0.276237011,9.802595139,-0.011325641,0.027944262,-0.999545320
0.463061227,72,0.000000000,0.999885023,-0.013987000,-0.005645000,-0.001460000,-0.001471330,-0.000148894,0.001139787,0.109543003,-0.275799006,9.802115440,-0.011329544,0.027954300,-0.999544996
0.468072449,73,0.000000000,0.999885023,-0.013985000,-0.005644000,-0.001456000,0.000945358,0.001674731,0.001173350,0.112706997,-0.277860999,9.799305916,-0.011327427,0.027950348,-0.999545130
0.472596590,74,0.000000000,0.999885023,-0.013985000,-0.005639000,-0.001452000,-0.000060301,0.001193299,0.002458366,0.113738999,-0.280252010,9.800928116,-0.011317315,0.027950408,-0.999545243
0.477663269,75,0.000000000,0.999885023,-0.013983000,-0.005637000,-0.001447000,-0.000036931,0.000266110,0.001724106,0.112650998,-0.281067997,9.798110962,-0.011313170,0.027946471,-0.999545400
0.482811485,76,0.000000000,0.999885023,-0.013986000,-0.005640000,-0.001445000,-0.001480772,-0.002304550,0.001067164,0.111342996,-0.284539014,9.799828529,-0.011319123,0.027952484,-0.999545164
0.488011542,77,0.000000000,0.999885023,-0.013996000,-0.005646000,-0.001444000,-0.006882374,0.000163014,-0.000688445,0.115220003,-0.287651986,9.801542282,-0.011331122,0.027972477,-0.999544469
0.493125614,78,0.000000000,0.999884009,-0.014012000,-0.005643000,-0.001446000,-0.006215240,0.002610524,-0.000552379,0.114306003,-0.287638009,9.799423218,-0.011325213,0.028004429,-0.999543641
0.498850480,79,0.000000000,0.999884009,-0.014024000,-0.005636000,-0.001449000,-0.005267718,0.002117189,0.000503039,0.110739000,-0.284096986,9.798453331,-0.011311334,0.028028413,-0.999543126
0.503113561,80,0.000000000,0.999884009,-0.014036000,-0.005633000,-0.001447000,-0.003305078,0.002317239,0.001901327,0.115267999,-0.280420989,9.798296928,-0.011305313,0.028052442,-0.999542520
0.507686023,81,0.000000000,0.999884009,-0.014033000,-0.005624000,-0.001442000,0.003644056,0.004109605,0.001683946,0.113821998,-0.280050993,9.798708916,-0.011287166,0.028046525,-0.999542891
0.512743678,82,0.000000000,0.999884009,-0.014029000,-0.005622000,-0.001442000,-0.000147812,-0.000633607,-0.000038467,0.111667000,-0.282505989,9.805004120,-0.011283155,0.028038532,-0.999543161
0.517913942,83,0.000000000,0.999884009,-0.014031000,-0.005620000,-0.001444000,-0.000540598,0.002015279,-0.000239005,0.108643003,-0.287449002,9.802902222,-0.011279218,0.028042514,-0.999543093
0.522492228,84,0.000000000,0.999884009,-0.014029000,-0.005617000,-0.001441000,0.000391408,0.000030194,0.002400700,0.116627999,-0.277229995,9.802950859,-0.011273129,0.028038557,-0.999543273
0.527546331,85,0.000000000,0.999884009,-0.014028000,-0.005618000,-0.001439000,0.001510006,0.001240807,0.000044977,0.114426002,-0.275090009,9.799020767,-0.011275069,0.028036577,-0.999543307
0.532715219,86,0.000000000,0.999884009,-0.014020000,-0.005613000,-0.001435000,0.004048972,0.002219989,0.001892932,0.120324999,-0.280604005,9.796540260,-0.011264936,0.028020638,-0.999543868
0.537508901,87,0.000000000,0.999885023,-0.014013000,-0.005608000,-0.001437000,0.000094195,0.002030621,-0.002992245,0.116366997,-0.285575002,9.804476738,-0.011254983,0.028006660,-0.999544372
0.542985379,88,0.000000000,0.999885023,-0.014016000,-0.005609000,-0.001443000,-0.001769362,-0.001043951,0.000539342,0.115021996,-0.293796986,9.807129860,-0.011257161,0.028012589,-0.999544182
0.547574578,89,0.000000000,0.999885023,-0.014017000,-0.005607000,-0.001439000,0.002720567,0.003069266,0.002102825,0.116566002,-0.286926001,9.800951004,-0.011253052,0.028014640,-0.999544171
0.552761931,90,0.000000000,0.999885023,-0.014012000,-0.005601000,-0.001435000,-0.000894272,0.003675716,0.001534720,0.117491998,-0.288228005,9.796216011,-0.011240927,0.028004702,-0.999544585
0.557914275,91,0.000000000,0.999885023,-0.014021000,-0.005591000,-0.001435000,-0.006316277,0.003594802,-0.000595803,0.113928996,-0.288608998,9.800141335,-0.011220955,0.028022729,-0.999544305
0.563002938,92,0.000000000,0.999884009,-0.014035000,-0.005590000,-0.001438000,-0.005733965,-0.002352180,-0.000739479,0.107372999,-0.287074000,9.806292534,-0.011219068,0.028050666,-0.999543541
0.567640649,93,0.000000000,0.999884009,-0.014041000,-0.005588000,-0.001441000,-0.000111457,0.004563059,-0.002064934,0.110675998,-0.287826002,9.804090500,-0.011215170,0.028062638,-0.999543249
0.573064486,94,0.000000000,0.999884009,-0.014041000,-0.005579000,-0.001445000,-0.000909561,0.002379547,0.000429456,0.116167001,-0.283861995,9.800405502,-0.011197284,0.028062620,-0.999543450
0.577827928,95,0.000000000,0.999884009,-0.014043000,-0.005571000,-0.001442000,-0.001033497,0.002855481,0.002172062,0.112201996,-0.283069998,9.801917076,-0.011181207,0.028066675,-0.999543516
0.582623530,96,0.000000000,0.999884009,-0.014046000,-0.005571000,-0.001438000,-0.000877482,-0.002815513,0.000495185,0.108626001,-0.280943990,9.805488586,-0.011181104,0.028072720,-0.999543348
0.587938309,97,0.000000000,0.999884009,-0.014048000,-0.005579000,-0.001437000,-0.001543499,-0.002306941,0.000860535,0.111901000,-0.286029994,9.799699783,-0.011197079,0.028076707,-0.999543057
0.592608853,98,0.000000000,0.999884009,-0.014052000,-0.005580000,-0.001433000,-0.001687559,0.002274705,0.001837378,0.117895000,-0.291022003,9.795171738,-0.011198979,0.028084748,-0.999542810
0.597779181,99,0.000000000,0.999884009,-0.014062000,-0.005578000,-0.001431000,-0.006006812,-0.000024051,0.001375372,0.115543000,-0.285371989,9.797672272,-0.011194952,0.028104773,-0.999542292
0.605059946,100,165.877642016,0.999884009,-0.014069000,-0.005578000,-0.001424000,0.000273685,0.000779307,0.002734652,0.111001998,-0.272359997,9.802601814,-0.011194775,0.028118851,-0.999541898
0.609649432,101,165.877642016,0.999884009,-0.014070000,-0.005582000,-0.001422000,-0.002709362,-0.003984569,-0.000107565,0.113935001,-0.278241992,9.802775383,-0.011202720,0.028120860,-0.999541753
0.612498025,102,165.877642016,0.999884009,-0.014080000,-0.005591000,-0.001423000,-0.004501536,-0.000623728,-0.001648795,0.110633001,-0.286296010,9.804524422,-0.011220775,0.028140822,-0.999540989
0.617852741,103,165.877642016,0.999884009,-0.014084000,-0.005587000,-0.001428000,0.000199596,0.002599528,-0.002406565,0.112222999,-0.287292004,9.806039810,-0.011212928,0.028148777,-0.999540853
0.622973724,104,165.877642016,0.999884009,-0.014085000,-0.005583000,-0.001434000,-0.001124394,0.003461424,-0.001362142,0.117599003,-0.277967006,9.797406197,-0.011205100,0.028150721,-0.999540886
0.627988146,105,165.877642016,0.999884009,-0.014089000,-0.005575000,-0.001440000,-0.002447353,0.001649773,-0.000926368,0.121298000,-0.281356990,9.797108650,-0.011189283,0.028158676,-0.999540839
0.632589825,106,165.877642016,0.999884009,-0.014091000,-0.005575000,-0.001441000,-0.000694344,0.000577756,-0.000512202,0.113472998,-0.276692986,9.803891182,-0.011189317,0.028162664,-0.999540726
0.637738457,107,165.877642016,0.999884009,-0.014097000,-0.005575000,-0.001442000,-0.004466489,-0.000783566,0.000037751,0.112230003,-0.275884002,9.805541039,-0.011189362,0.028174651,-0.999540388
0.642568300,108,165.877642016,0.999884009,-0.014104000,-0.005573000,-0.001443000,-0.002287725,0.001916668,0.000215548,0.111653998,-0.274650007,9.806018829,-0.011185411,0.028188645,-0.999540038
0.649057851,109,165.877642016,0.999882996,-0.014112000,-0.005570000,-0.001443000,-0.005258031,0.001884886,-0.000543496,0.112130001,-0.275375992,9.804538727,-0.011179424,0.028204623,-0.999539653
0.652628376,110,165.877642016,0.999882996,-0.014123000,-0.005567000,-0.001445000,-0.001866001,0.000471117,-0.000019635,0.119949996,-0.271017998,9.798139572,-0.011173512,0.028226607,-0.999539099
0.657686223,111,165.877642016,0.999882996,-0.014117000,-0.005567000,-0.001444000,0.004069078,0.001147135,0.000591335,0.125277996,-0.276515007,9.800582886,-0.011173467,0.028214618,-0.999539438
0.663041258,112,165.877642016,0.999882996,-0.014115000,-0.005564000,-0.001445000,-0.002860438,0.002725244,0.000238639,0.116947003,-0.284370989,9.803933144,-0.011167490,0.028210617,-0.999539617
0.669404311,113,165.877642016,0.999882996,-0.014122000,-0.005559000,-0.001442000,-0.003022753,0.001223266,0.002970830,0.112061001,-0.284823000,9.800862312,-0.011157427,0.028224663,-0.999539333
0.673566910,114,165.877642016,0.999882996,-0.014124000,-0.005555000,-0.001435000,0.002131798,0.003079476,0.001987703,0.114335999,-0.279763997,9.803796768,-0.011149236,0.028228751,-0.999539309
0.678067531,115,165.877642016,0.999882996,-0.014118000,-0.005544000,-0.001436000,0.001468485,0.006416284,-0.001871028,0.120223999,-0.274785995,9.803389549,-0.011127249,0.028216774,-0.999539892
0.682619353,116,165.877642016,0.999884009,-0.014120000,-0.005524000,-0.001440000,-0.004411390,0.007287378,-0.002352128,0.115305997,-0.278250009,9.800849915,-0.011087384,0.028220816,-0.999540222
0.687745905,117,165.877642016,0.999884009,-0.014123000,-0.005515000,-0.001443000,0.001793361,0.001040932,-0.000424586,0.109727003,-0.281558990,9.798386574,-0.011069479,0.028226808,-0.999540251
0.692798120,118,165.877642016,0.999884009,-0.014123000,-0.005515000,-0.001443000,-0.003454426,-0.000326411,-0.000631896,0.110864997,-0.283297986,9.801486015,-0.011069479,0.028226808,-0.999540251
0.699004402,119,165.877642016,0.999884009,-0.014130000,-0.005512000,-0.001441000,-0.000741800,0.002495786,0.002013743,0.114447996,-0.292198986,9.805918694,-0.011063444,0.028240837,-0.999539922
0.702966870,120,165.877642016,0.999884009,-0.014130000,-0.005508000,-0.001440000,-0.003420967,0.002737514,0.000166051,0.110809997,-0.292692006,9.805664062,-0.011055417,0.028240859,-0.999540010
0.707465219,121,165.877642016,0.999884009,-0.014137000,-0.005499000,-0.001438000,0.000224083,0.003852186,0.002933200,0.113311999,-0.289617985,9.804634094,-0.011037383,0.028254905,-0.999539812
0.712901952,122,165.877642016,0.999884009,-0.014126000,-0.005495000,-0.001434000,0.007560173,-0.000239477,0.000902492,0.118452996,-0.283163995,9.804894447,-0.011029239,0.028232963,-0.999540522
0.717577680,123,165.877642016,0.999884009,-0.014103000,-0.005497000,-0.001433000,0.007540049,0.001315612,-0.000144827,0.109831996,-0.280216008,9.806128502,-0.011033144,0.028186974,-0.999541777
0.722807465,124,165.877642016,0.999884009,-0.014093000,-0.005492000,-0.001432000,-0.001529484,0.002579457,0.001027022,0.107685998,-0.282440990,9.802443504,-0.011023088,0.028167001,-0.999542451
0.727850784,125,165.877642016,0.999884009,-0.014095000,-0.005487000,-0.001432000,-0.000456508,0.002002853,-0.000380412,0.112788998,-0.289512008,9.800873756,-0.011013095,0.028171015,-0.999542448
0.733091929,126,165.877642016,0.999884009,-0.014093000,-0.005489000,-0.001434000,0.000128352,-0.003742702,-0.002336071,0.118914999,-0.282943010,9.802831650,-0.011017146,0.028166987,-0.999542516
0.737940204,127,165.877642016,0.999884009,-0.014093000,-0.005499000,-0.001435000,-0.001021506,-0.002380071,0.002128604,0.115408003,-0.274544001,9.799105644,-0.011037172,0.028166948,-0.999542297
0.743662510,128,165.877642016,0.999884009,-0.014092000,-0.005504000,-0.001430000,0.000423626,-0.001594201,0.002154051,0.114487000,-0.276405990,9.797702789,-0.011047026,0.028164990,-0.999542243
0.747639346,129,165.877642016,0.999884009,-0.014087000,-0.005507000,-0.001426000,0.003666954,0.000652439,0.001099522,0.111317001,-0.284134001,9.807024956,-0.011052898,0.028155026,-0.999542459
0.752933005,130,165.877642016,0.999884009,-0.014079000,-0.005504000,-0.001427000,0.001807288,0.001744300,-0.000559535,0.108286001,-0.287301987,9.805042267,-0.011046905,0.028139025,-0.999542975
0.757605949,131,165.877642016,0.999884009,-0.014072000,-0.005501000,-0.001427000,0.001035678,0.002157628,-0.000000768,0.104409002,-0.281558007,9.802206993,-0.011040886,0.028125036,-0.999543436
0.762661395,132,165.877642016,0.999884009,-0.014070000,-0.005495000,-0.001429000,-0.000604250,0.002983274,-0.002571411,0.109911002,-0.272491008,9.801388741,-0.011028938,0.028121030,-0.999543680
0.767985007,133,165.877642016,0.999884009,-0.014076000,-0.005494000,-0.001437000,-0.004363760,-0.001768699,-0.001280531,0.113075003,-0.280223995,9.801945686,-0.011027180,0.028132945,-0.999543364
0.772922083,134,165.877642016,0.999884009,-0.014076000,-0.005498000,-0.001435000,0.001211573,-0.000125053,0.000795905,0.116267003,-0.282927006,9.807698250,-0.011035123,0.028132956,-0.999543276
0.778330912,135,165.877642016,0.999884009,-0.014075000,-0.005498000,-0.001433000,-0.001157275,0.001616681,-0.000765938,0.112797998,-0.281554997,9.809477806,-0.011035063,0.028130977,-0.999543333
0.782896718,136,165.877642016,0.999884009,-0.014080000,-0.005491000,-0.001439000,-0.001358494,0.005252568,-0.001900314,0.109389998,-0.281141996,9.805192947,-0.011021249,0.028140931,-0.999543205
0.787974117,137,165.877642016,0.999884009,-0.014070000,-0.005482000,-0.001437000,0.006389057,0.001256078,0.002973657,0.113310002,-0.279195011,9.799306870,-0.011003165,0.028120980,-0.999543966
0.792515698,138,165.877642016,0.999885023,-0.014061000,-0.005481000,-0.001432000,-0.000562904,0.000866800,0.000220191,0.113623001,-0.280285001,9.802833557,-0.011001010,0.028103069,-0.999544494
0.797613098,139,165.877642016,0.999885023,-0.014067000,-0.005479000,-0.001435000,-0.003813300,0.002886443,-0.000873415,0.118435003,-0.282525003,9.797577858,-0.010997112,0.028115040,-0.999544200
0.802793122,140,165.877642016,0.999885023,-0.014069000,-0.005476000,-0.001434000,0.000232460,-0.000927328,0.000592452,0.120987996,-0.289528012,9.798469543,-0.010991090,0.028119060,-0.999544153
0.807966747,141,165.877642016,0.999884009,-0.014072000,-0.005486000,-0.001434000,-0.001270704,-0.005262796,0.000922232,0.115088999,-0.292903990,9.803010941,-0.011011086,0.028125002,-0.999543765
0.812563210,142,165.877642016,0.999884009,-0.014075000,-0.005494000,-0.001434000,-0.001550673,0.000893905,-0.000645458,0.111107998,-0.288343996,9.804753304,-0.011027092,0.028130978,-0.999543421
0.817602656,143,165.877642016,0.999884009,-0.014076000,-0.005491000,-0.001433000,-0.001377937,0.000524210,-0.000067544,0.116645999,-0.286410987,9.801150322,-0.011021068,0.028132998,-0.999543430
0.822745720,144,165.877642016,0.999884009,-0.014078000,-0.005489000,-0.001435000,-0.001277825,0.003290050,-0.000007819,0.118198998,-0.287580013,9.795978546,-0.011017131,0.028136980,-0.999543362
0.827854351,145,165.877642016,0.999884009,-0.014082000,-0.005479000,-0.001434000,-0.001986726,0.004823723,0.000326359,0.111956000,-0.284404993,9.792469025,-0.010997116,0.028145019,-0.999543356
0.832964839,146,165.877642016,0.999884009,-0.014079000,-0.005471000,-0.001433000,0.004817720,0.001295366,0.000768294,0.113114998,-0.286873013,9.803248405,-0.010981081,0.028139054,-0.999543700
0.837781337,147,165.877642016,0.999885023,-0.014064000,-0.005470000,-0.001434000,0.004070335,0.001005711,-0.002312579,0.115796000,-0.277732998,9.811903000,-0.010979078,0.028109078,-0.999544566
0.842932593,148,165.877642016,0.999885023,-0.014059000,-0.005464000,-0.001441000,0.001261768,0.003322705,-0.002285736,0.114437997,-0.276335001,9.804278374,-0.010967262,0.028099019,-0.999544978
0.847488319,149,165.877642016,0.999885023,-0.014057000,-0.005462000,-0.001443000,-0.000758485,-0.000639820,0.001462568,0.113761999,-0.273885995,9.798897743,-0.010963313,0.028095005,-0.999545135
0.852578999,150,165.877642016,0.999885023,-0.014059000,-0.005467000,-0.001445000,-0.001466635,-0.001382161,-0.001731681,0.114854001,-0.281767994,9.801680565,-0.010973373,0.028098967,-0.999544913
0.858068949,151,165.877642016,0.999885023,-0.014064000,-0.005471000,-0.001445000,-0.004895125,-0.000042132,0.001283114,0.119713001,-0.288495004,9.800971985,-0.010981387,0.028108955,-0.999544544
0.862550689,152,165.877642016,0.999884009,-0.014081000,-0.005473000,-0.001441000,-0.006577622,-0.001519937,0.001169528,0.116568998,-0.291734010,9.802373886,-0.010985312,0.028142961,-0.999543543
0.867486646,153,165.877642016,0.999884009,-0.014084000,-0.005474000,-0.001438000,0.002808497,0.001286133,0.001745190,0.111060999,-0.287573993,9.800025940,-0.010987235,0.028148990,-0.999543353
0.872758384,154,165.877642016,0.999885023,-0.014073000,-0.005470000,-0.001432000,0.004341018,0.000469947,0.001724682,0.117204003,-0.281372994,9.803587914,-0.010979048,0.028127098,-0.999544060
0.877862503,155,165.877642016,0.999885023,-0.014063000,-0.005476000,-0.001432000,0.002525788,-0.003664511,-0.000661462,0.120962001,-0.278564990,9.801556587,-0.010991017,0.028107082,-0.999544491
0.883001663,156,165.877642016,0.999885023,-0.014057000,-0.005486000,-0.001434000,0.000601406,-0.001365109,0.001131008,0.118860997,-0.288895994,9.795054436,-0.011011054,0.028095034,-0.999544609
0.887533805,157,165.877642016,0.999885023,-0.014059000,-0.005483000,-0.001432000,-0.002054968,0.002478071,-0.000131092,0.107372001,-0.292854011,9.795573235,-0.011005004,0.028099063,-0.999544562
0.893134445,158,165.877642016,0.999885023,-0.014068000,-0.005485000,-0.001432000,-0.006350363,-0.003307800,0.000269392,0.105725996,-0.285414010,9.799849510,-0.011009030,0.028117056,-0.999544012
0.897612601,159,165.877642016,0.999884009,-0.014075000,-0.005489000,-0.001433000,0.000513738,-0.000369434,-0.000971293,0.108354002,-0.284595996,9.804956436,-0.011017066,0.028131003,-0.999543531
0.902719217,160,165.877642016,0.999884009,-0.014073000,-0.005490000,-0.001439000,0.000746250,0.000608282,-0.002398501,0.114285998,-0.285095006,9.803614616,-0.011019228,0.028126936,-0.999543621
0.907806120,161,165.877642016,0.999884009,-0.014072000,-0.005494000,-0.001441000,-0.000556673,-0.002408903,0.002078966,0.114399999,-0.290708989,9.793688774,-0.011027281,0.028124902,-0.999543590
0.912839614,162,165.877642016,0.999884009,-0.014068000,-0.005504000,-0.001437000,0.004680258,-0.001437628,0.000782483,0.116314001,-0.288740009,9.798904419,-0.011047155,0.028116918,-0.999543595
0.917992950,163,165.877642016,0.999884009,-0.014061000,-0.005503000,-0.001435000,-0.000427501,0.000799274,0.000902021,0.113238998,-0.283681005,9.798758507,-0.011045078,0.028102945,-0.999544011
0.922498691,164,165.877642016,0.999885023,-0.014065000,-0.005502000,-0.001432000,-0.002760500,-0.000826186,0.001532085,0.116641000,-0.286619008,9.795447350,-0.011043017,0.028111008,-0.999543808
0.927542714,165,165.877642016,0.999884009,-0.014073000,-0.005512000,-0.001426000,-0.004407340,-0.005430400,0.001897574,0.116463996,-0.281423002,9.797430992,-0.011062858,0.028127016,-0.999543137
0.932664913,166,165.877642016,0.999884009,-0.014081000,-0.005525000,-0.001427000,-0.003456188,-0.003085376,-0.001397119,0.117485002,-0.274625987,9.802029610,-0.011088905,0.028142966,-0.999542400
0.937761865,167,165.877642016,0.999884009,-0.014089000,-0.005532000,-0.001430000,-0.003567139,-0.001763812,0.000831789,0.118043996,-0.284090996,9.804890633,-0.011103012,0.028158911,-0.999541794
0.942874592,168,165.877642016,0.999884009,-0.014092000,-0.005537000,-0.001430000,-0.001333624,-0.001273584,-0.001005310,0.115107998,-0.286085993,9.800286293,-0.011113019,0.028164896,-0.999541514
0.948009208,169,165.877642016,0.999884009,-0.014096000,-0.005538000,-0.001430000,-0.001413996,0.002116927,0.001570046,0.112612002,-0.281141013,9.800565720,-0.011115029,0.028172892,-0.999541267
0.953670201,170,165.877642016,0.999884009,-0.014095000,-0.005537000,-0.001428000,-0.000111230,-0.001263863,-0.000706981,0.109528996,-0.275097996,9.804016113,-0.011112971,0.028170917,-0.999541345
0.957712318,171,165.877642016,0.999884009,-0.014096000,-0.005540000,-0.001431000,-0.002007530,0.001188011,-0.000633956,0.112703003,-0.277022988,9.803759575,-0.011119057,0.028172875,-0.999541222
0.962830070,172,165.877642016,0.999884009,-0.014104000,-0.005537000,-0.001434000,-0.004361840,0.000608422,-0.002452764,0.116811000,-0.280714005,9.805319786,-0.011113166,0.028188849,-0.999540838
0.967540774,173,165.877642016,0.999884009,-0.014103000,-0.005537000,-0.001438000,0.002568793,0.001435795,-0.001691084,0.116511002,-0.276062995,9.799269676,-0.011113276,0.028186804,-0.999540894
0.974266170,174,165.877642016,0.999884009,-0.014098000,-0.005531000,-0.001441000,0.000194639,0.002301758,-0.000470000,0.118734002,-0.282416999,9.796595573,-0.011101347,0.028176789,-0.999541309
0.977777398,175,165.877642016,0.999884009,-0.014097000,-0.005525000,-0.001444000,0.000550477,0.003629098,-0.001704838,0.120784998,-0.286742985,9.794828415,-0.011089430,0.028174773,-0.999541498
0.983397110,176,165.877642016,0.999884009,-0.014093000,-0.005519000,-0.001449000,0.001461172,0.001102909,-0.001059956,0.118507996,-0.288116008,9.793828964,-0.011077561,0.028166736,-0.999541856
0.987965572,177,165.877642016,0.999884009,-0.014085000,-0.005521000,-0.001444000,0.003560960,-0.001521927,0.003296089,0.120757997,-0.281702995,9.798095703,-0.011081397,0.028150789,-0.999542263
0.992500882,178,165.877642016,0.999884009,-0.014079000,-0.005525000,-0.001439000,-0.000667257,-0.001170941,0.000318383,0.115354002,-0.275139004,9.802534103,-0.011089238,0.028138833,-0.999542512
0.997886702,179,165.877642016,0.999884009,-0.014083000,-0.005526000,-0.001440000,-0.004530840,0.002308983,-0.001357639,0.098600000,-0.277153999,9.805283546,-0.011091277,0.028146818,-0.999542265
1.004442174,180,165.877642016,0.999884009,-0.014096000,-0.005515000,-0.001446000,-0.004334019,0.005127010,-0.000651322,0.104025997,-0.279789001,9.803911209,-0.011069486,0.028172781,-0.999541775
1.007962074,181,165.877642016,0.999884009,-0.014097000,-0.005506000,-0.001444000,0.000932145,0.002725436,0.000477784,0.110334001,-0.292721987,9.801800728,-0.011051435,0.028174828,-0.999541917
1.012676619,182,165.877642016,0.999884009,-0.014094000,-0.005504000,-0.001447000,0.001940143,-0.001539485,-0.000893085,0.106112003,-0.289449990,9.803977013,-0.011047511,0.028168801,-0.999542130
1.018819028,183,165.877642016,0.999884009,-0.014083000,-0.005512000,-0.001444000,0.003656814,-0.003687148,0.002967199,0.109843999,-0.286650002,9.806118011,-0.011063393,0.028146814,-0.999542574
1.022982491,184,165.877642016,0.999884009,-0.014089000,-0.005517000,-0.001440000,-0.006447089,0.000846293,-0.000345313,0.116437003,-0.286689013,9.804596901,-0.011073296,0.028158843,-0.999542126
1.027526025,185,165.877642016,0.999884009,-0.014091000,-0.005510000,-0.001444000,0.003458475,0.004273945,-0.002040901,0.116035998,-0.283957988,9.803151131,-0.011059417,0.028162818,-0.999542167
1.033253579,186,165.877642016,0.999884009,-0.014077000,-0.005503000,-0.001447000,0.005657520,0.001332576,0.000285745,0.108471997,-0.276950985,9.797657013,-0.011045462,0.028134809,-0.999543110
1.039775259,187,165.877642016,0.999885023,-0.014061000,-0.005497000,-0.001446000,0.006827519,0.005333028,-0.000632228,0.106587999,-0.283257008,9.798173904,-0.011033401,0.028102870,-0.999544143
1.043246422,188,165.877642016,0.999885023,-0.014042000,-0.005479000,-0.001445000,0.005477349,0.008939681,0.001514126,0.112819999,-0.284489006,9.798343658,-0.010997322,0.028064937,-0.999545606
1.048979320,189,165.877642016,0.999885023,-0.014029000,-0.005465000,-0.001442000,0.005062118,0.002367801,0.000564858,0.110537000,-0.277680993,9.803209305,-0.010969203,0.028039013,-0.999546642
1.052993949,190,165.877642016,0.999885023,-0.014019000,-0.005468000,-0.001440000,0.000638441,-0.002438242,0.001395897,0.116035998,-0.278742999,9.805409431,-0.010975118,0.028019029,-0.999547137
1.057548907,191,165.877642016,0.999885023,-0.014023000,-0.005473000,-0.001438000,-0.004927518,-0.001696547,-0.000207363,0.119520001,-0.279576004,9.802489281,-0.010985072,0.028027036,-0.999546803
1.062600418,192,165.877642016,0.999885023,-0.014035000,-0.005477000,-0.001440000,-0.004614965,0.000903697,-0.001329854,0.115695998,-0.272385985,9.799609184,-0.010993161,0.028050998,-0.999546043
1.069693531,193,165.877642016,0.999885023,-0.014041000,-0.005474000,-0.001437000,-0.000207205,0.002612426,0.002877699,0.115938999,-0.277639002,9.799573898,-0.010987095,0.028063039,-0.999545771
1.073208887,194,165.877642016,0.999885023,-0.014035000,-0.005469000,-0.001433000,0.001743095,0.000694554,0.000312362,0.117844999,-0.286897987,9.798243523,-0.010976967,0.028051098,-0.999546218
1.078039370,195,165.877642016,0.999885023,-0.014035000,-0.005473000,-0.001431000,-0.001644589,-0.002352285,0.000675355,0.113738999,-0.290243000,9.801296234,-0.010984910,0.028051108,-0.999546130
1.082788027,196,165.877642016,0.999885023,-0.014043000,-0.005483000,-0.001431000,-0.004937170,-0.005846853,0.000240855,0.111945003,-0.291532010,9.803192139,-0.011004930,0.028067078,-0.999545462
1.088004404,197,165.877642016,0.999885023,-0.014052000,-0.005495000,-0.001429000,-0.004343845,-0.002089438,0.000692128,0.113766998,-0.282703996,9.808012962,-0.011028897,0.028085064,-0.999544693
1.093801528,198,165.877642016,0.999885023,-0.014059000,-0.005498000,-0.001432000,-0.002697912,-0.000290196,-0.001894084,0.109320998,-0.285501987,9.807009697,-0.011035001,0.028099020,-0.999544233
1.100403049,199,165.877642016,0.999884009,-0.014063000,-0.005500000,-0.001433000,-0.001707805,-0.001688850,0.000977838,0.114687003,-0.283084005,9.800874710,-0.011039029,0.028106974,-0.999543964
1.103106615,200,200.156121775,0.999884009,-0.014072000,-0.005504000,-0.001430000,-0.005143660,-0.001008835,0.000983790,0.111218996,-0.282465994,9.789089203,-0.011046969,0.028124994,-0.999543370
1.107822280,201,200.156121775,0.999884009,-0.014076000,-0.005510000,-0.001429000,0.000705881,-0.002212257,0.000761121,0.113440000,-0.282189012,9.793994904,-0.011058951,0.028132987,-0.999543012
1.112526680,202,200.156121775,0.999884009,-0.014075000,-0.005518000,-0.001428000,-0.000830602,-0.002607225,0.000374548,0.113544002,-0.276856989,9.798066139,-0.011074918,0.028130975,-0.999542892
1.117667440,203,200.156121775,0.999884009,-0.014078000,-0.005523000,-0.001426000,-0.004114858,-0.000981975,0.001319696,0.114124000,-0.280669004,9.802974701,-0.011084869,0.028136982,-0.999542613
1.122664198,204,200.156121775,0.999884009,-0.014086000,-0.005526000,-0.001424000,-0.003088500,0.000074910,0.001655270,0.115344003,-0.286695987,9.801361084,-0.011090835,0.028152994,-0.999542096
1.127809918,205,200.156121775,0.999884009,-0.014086000,-0.005525000,-0.001418000,0.002898660,0.002780501,0.002408764,0.119557001,-0.277525991,9.798639297,-0.011088666,0.028153063,-0.999542118
1.132883669,206,200.156121775,0.999884009,-0.014072000,-0.005518000,-0.001414000,0.004717328,0.002171539,0.000607741,0.116042003,-0.276268005,9.801166534,-0.011074516,0.028125131,-0.999543061
1.137466115,207,200.156121775,0.999884009,-0.014070000,-0.005521000,-0.001411000,-0.004906906,-0.002909097,0.001361043,0.112971999,-0.277170002,9.804784775,-0.011080425,0.028121155,-0.999543107
1.142802398,208,200.156121775,0.999884009,-0.014082000,-0.005528000,-0.001410000,-0.005410416,-0.001419337,0.000012235,0.113674998,-0.278780997,9.800567627,-0.011094429,0.028145144,-0.999542277
1.147988119,209,200.156121775,0.999884009,-0.014094000,-0.005529000,-0.001409000,-0.004028552,0.001238782,0.001066030,0.115584999,-0.276843995,9.804282188,-0.011096434,0.028169149,-0.999541579
1.152530981,210,200.156121775,0.999884009,-0.014099000,-0.005527000,-0.001410000,-0.003230255,0.000264958,-0.000911673,0.107263997,-0.279650986,9.806667328,-0.011092477,0.028179143,-0.999541341
1.157615868,211,200.156121775,0.999884009,-0.014108000,-0.005530000,-0.001411000,-0.004140846,-0.001886334,-0.000969443,0.113453999,-0.289651990,9.804398537,-0.011098530,0.028197122,-0.999540767
1.166718040,212,200.156121775,0.999884009,-0.014112000,-0.005534000,-0.001417000,0.000373378,-0.001545768,-0.002357119,0.113949999,-0.281403005,9.798723221,-0.011106709,0.028205044,-0.999540453
1.168086831,213,200.156121775,0.999884009,-0.014112000,-0.005538000,-0.001418000,-0.001884240,-0.000468778,0.002517288,0.114193998,-0.281713992,9.801753044,-0.011114737,0.028205021,-0.999540364
1.172936418,214,200.156121775,0.999884009,-0.014117000,-0.005540000,-0.001413000,-0.002494791,0.000521243,0.003321449,0.113843001,-0.281192005,9.801963806,-0.011118609,0.028215068,-0.999540037
1.179914586,215,200.156121775,0.999884009,-0.014118000,-0.005541000,-0.001409000,0.000356361,-0.002102581,-0.000402839,0.120535001,-0.280357003,9.794869423,-0.011120499,0.028217110,-0.999539959
1.182954350,216,200.156121775,0.999882996,-0.014117000,-0.005550000,-0.001415000,-0.000569257,-0.001519274,-0.002972627,0.116876997,-0.283582985,9.795104980,-0.011138652,0.028214989,-0.999539816
1.188073765,217,200.156121775,0.999882996,-0.014117000,-0.005550000,-0.001422000,-0.000829084,0.001043236,-0.000460488,0.116007000,-0.275213003,9.798559189,-0.011138850,0.028214912,-0.999539816
1.192614099,218,200.156121775,0.999882996,-0.014117000,-0.005550000,-0.001419000,-0.002687947,-0.000286304,0.001513602,0.118712999,-0.271420002,9.808010101,-0.011138765,0.028214945,-0.999539816
1.197650537,219,200.156121775,0.999882996,-0.014124000,-0.005551000,-0.001416000,-0.003395835,0.000207834,0.000512568,0.112565003,-0.279902011,9.805333138,-0.011140700,0.028228973,-0.999539398
1.203332715,220,200.156121775,0.999882996,-0.014128000,-0.005554000,-0.001416000,-0.000837531,-0.001002709,-0.000946544,0.116516002,-0.287097991,9.806492805,-0.011146711,0.028236964,-0.999539105
1.207816727,221,200.156121775,0.999882996,-0.014119000,-0.005553000,-0.001423000,0.006351899,0.002908888,-0.002759523,0.115307003,-0.279826999,9.799845695,-0.011144884,0.028218893,-0.999539636
1.212920271,222,200.156121775,0.999884009,-0.014107000,-0.005544000,-0.001425000,0.001992957,0.002784655,0.000285483,0.121192999,-0.275898993,9.800807953,-0.011126919,0.028194927,-0.999540513
1.217494301,223,200.156121775,0.999884009,-0.014106000,-0.005544000,-0.001426000,-0.001384116,-0.001254857,-0.000718535,0.115750998,-0.279713988,9.803632736,-0.011126944,0.028192916,-0.999540570
1.222593492,224,200.156121775,0.999884009,-0.014112000,-0.005551000,-0.001428000,-0.003460272,-0.003201353,-0.000311960,0.113959000,-0.283710986,9.800960541,-0.011141016,0.028204873,-0.999540076
1.227709580,225,200.156121775,0.999882996,-0.014122000,-0.005562000,-0.001425000,-0.006331618,-0.005154795,0.002318286,0.122310996,-0.290187001,9.799261093,-0.011162946,0.028224844,-0.999539267
1.232768578,226,200.156121775,0.999882996,-0.014136000,-0.005568000,-0.001421000,-0.004766756,0.001949637,0.002005296,0.121812999,-0.284754992,9.798917770,-0.011174872,0.028252867,-0.999538342
1.237643158,227,200.156121775,0.999882996,-0.014138000,-0.005563000,-0.001415000,0.003098937,0.001962553,0.001715449,0.117890999,-0.283437997,9.801323891,-0.011164709,0.028256948,-0.999538340
1.242718029,228,200.156121775,0.999882996,-0.014135000,-0.005562000,-0.001414000,-0.003099967,0.000378614,-0.000067911,0.112167999,-0.282523006,9.804223061,-0.011162672,0.028250964,-0.999538532
1.247738435,229,200.156121775,0.999882996,-0.014140000,-0.005563000,-0.001417000,-0.001869387,0.000744662,-0.001082924,0.118180998,-0.284722000,9.797035217,-0.011164771,0.028260925,-0.999538227
1.253385028,230,200.156121775,0.999882996,-0.014143000,-0.005559000,-0.001419000,-0.003209695,0.000517508,-0.000972672,0.111998998,-0.287748992,9.798371315,-0.011156837,0.028266915,-0.999538146
1.257883473,231,200.156121775,0.999882996,-0.014149000,-0.005567000,-0.001422000,-0.002783643,-0.003553735,-0.001592264,0.109056003,-0.287692010,9.800711632,-0.011172937,0.028278856,-0.999537629
1.262931111,232,200.156121775,0.999882996,-0.014152000,-0.005570000,-0.001424000,-0.000359712,0.000581945,-0.000145543,0.113209002,-0.283315003,9.799281120,-0.011179002,0.028284824,-0.999537392
1.267446389,233,200.156121775,0.999882996,-0.014147000,-0.005567000,-0.001424000,0.004060404,0.001429564,0.001093082,0.114014998,-0.281239003,9.804288864,-0.011172987,0.028274835,-0.999537742
1.272992180,234,200.156121775,0.999882996,-0.014134000,-0.005566000,-0.001420000,0.003179152,0.000235043,0.001829908,0.121781997,-0.279217988,9.802793503,-0.011170838,0.028248885,-0.999538499
1.278060331,235,200.156121775,0.999882996,-0.014128000,-0.005566000,-0.001420000,0.000903976,-0.000016965,-0.000830969,0.112194002,-0.286332995,9.805050850,-0.011170821,0.028236886,-0.999538839
1.282654810,236,200.156121775,0.999882996,-0.014128000,-0.005560000,-0.001422000,-0.003649658,0.005369593,-0.001549870,0.107652001,-0.290692002,9.807153702,-0.011158879,0.028236880,-0.999538972
1.288079927,237,200.156121775,0.999882996,-0.014140000,-0.005548000,-0.001427000,-0.007039053,0.004160673,0.000089483,0.108778000,-0.287182003,9.805269241,-0.011135057,0.028260856,-0.999538560
1.292638693,238,200.156121775,0.999882996,-0.014156000,-0.005542000,-0.001420000,-0.005181534,0.001525645,0.004677151,0.109911002,-0.290619999,9.802199364,-0.011122906,0.028292948,-0.999537788
1.298483626,239,200.156121775,0.999882996,-0.014155000,-0.005539000,-0.001415000,0.003127543,0.000650222,-0.001021314,0.114000000,-0.284575999,9.801358223,-0.011116763,0.028291011,-0.999537911
1.302829204,240,200.156121775,0.999882996,-0.014153000,-0.005539000,-0.001417000,-0.002551724,-0.000478150,-0.000240402,0.115827002,-0.272473007,9.808101654,-0.011116814,0.028286990,-0.999538024
1.307676519,241,200.156121775,0.999882996,-0.014164000,-0.005541000,-0.001423000,-0.007090836,-0.000010315,-0.004046249,0.113900997,-0.277137995,9.801052094,-0.011121014,0.028308915,-0.999537357
1.312488154,242,200.156121775,0.999882996,-0.014171000,-0.005544000,-0.001428000,0.000531104,-0.001262466,-0.001084722,0.111544997,-0.278916001,9.798531532,-0.011127175,0.028322849,-0.999536894
1.317726580,243,200.156121775,0.999882996,-0.014168000,-0.005544000,-0.001432000,0.000842767,0.001654066,-0.000020438,0.109063998,-0.284882009,9.803334236,-0.011127279,0.028316806,-0.999537064
1.322935981,244,200.156121775,0.999882996,-0.014165000,-0.005544000,-0.001428000,-0.000412910,-0.002537656,0.002560311,0.108443998,-0.285809994,9.803990364,-0.011127158,0.028310852,-0.999537234
1.328131174,245,200.156121775,0.999882996,-0.014170000,-0.005549000,-0.001427000,-0.002326262,0.001224680,-0.001443195,0.114918999,-0.281230986,9.801712036,-0.011137143,0.028320848,-0.999536839
1.332876184,246,200.156121775,0.999882996,-0.014170000,-0.005545000,-0.001428000,0.000397167,0.001414677,-0.000452738,0.115396000,-0.282705992,9.807614326,-0.011129172,0.028320848,-0.999536928
1.337955407,247,200.156121775,0.999882996,-0.014168000,-0.005542000,-0.001426000,-0.001796310,0.002574570,0.001176230,0.115088001,-0.282229990,9.804649353,-0.011123110,0.028316878,-0.999537108
1.343012166,248,200.156121775,0.999882996,-0.014176000,-0.005536000,-0.001422000,-0.003347908,0.002619774,0.002474406,0.113288999,-0.281491011,9.800884247,-0.011111021,0.028332938,-0.999536787
1.348070557,249,200.156121775,0.999882996,-0.014180000,-0.005532000,-0.001421000,-0.002621188,0.000639471,-0.001266690,0.113154002,-0.282103002,9.799280167,-0.011103005,0.028340960,-0.999536649
1.352568586,250,200.156121775,0.999882996,-0.014181000,-0.005536000,-0.001425000,0.001199111,-0.004116377,-0.000338053,0.114841998,-0.285869986,9.797944069,-0.011111120,0.028342904,-0.999536504
1.357601120,251,200.156121775,0.999882996,-0.014172000,-0.005548000,-0.001428000,0.004149520,-0.004207745,0.000081646,0.110522002,-0.288363993,9.804275513,-0.011135177,0.028324838,-0.999536748
1.362686904,252,200.156121775,0.999882996,-0.014171000,-0.005555000,-0.001424000,-0.002418974,-0.001827203,0.001833399,0.110114999,-0.287389994,9.805247307,-0.011149059,0.028322863,-0.999536649
1.367704526,253,200.156121775,0.999882996,-0.014171000,-0.005559000,-0.001421000,-0.000036774,-0.001155338,0.001158934,0.109608002,-0.285618991,9.807406425,-0.011156974,0.028322884,-0.999536561
1.372759396,254,200.156121775,0.999882996,-0.014166000,-0.005556000,-0.001420000,0.002543870,0.001872040,-0.000593429,0.114588998,-0.290499002,9.800837517,-0.011150931,0.028312907,-0.999536911
1.377576983,255,200.156121775,0.999882996,-0.014157000,-0.005550000,-0.001420000,0.004599623,0.003103579,0.001033427,0.121338002,-0.281888992,9.795134544,-0.011138907,0.028294925,-0.999537554
1.382678447,256,200.156121775,0.999882996,-0.014148000,-0.005542000,-0.001419000,0.000633258,0.004527436,0.000199334,0.118357003,-0.283991992,9.796511650,-0.011122855,0.028276960,-0.999538241
1.387714373,257,200.156121775,0.999882996,-0.014147000,-0.005533000,-0.001418000,0.000384095,0.003482298,-0.000355925,0.115304999,-0.283733994,9.802469254,-0.011104826,0.028274999,-0.999538497
1.393082561,258,200.156121775,0.999882996,-0.014146000,-0.005533000,-0.001421000,-0.002514601,-0.002186007,-0.001789032,0.113132000,-0.282012999,9.804374695,-0.011104908,0.028272965,-0.999538553
1.397587823,259,200.156121775,0.999882996,-0.014144000,-0.005537000,-0.001422000,0.003005771,0.000521452,0.001635129,0.109553002,-0.274704009,9.805174828,-0.011112930,0.028268942,-0.999538578
1.402867913,260,200.156121775,0.999882996,-0.014132000,-0.005540000,-0.001420000,0.003291115,-0.002719555,-0.000448550,0.110976003,-0.274098009,9.802623749,-0.011118838,0.028244959,-0.999539190
1.407938880,261,200.156121775,0.999882996,-0.014122000,-0.005546000,-0.001423000,0.003274290,-0.001374290,-0.000074037,0.110881001,-0.276502997,9.806325912,-0.011130893,0.028224911,-0.999539622
1.413056408,262,200.156121775,0.999882996,-0.014118000,-0.005550000,-0.001421000,-0.000356169,-0.001426266,0.001067548,0.107321002,-0.293314993,9.811704636,-0.011138824,0.028216923,-0.999539759
1.418116175,263,200.156121775,0.999882996,-0.014124000,-0.005548000,-0.001421000,-0.005208080,0.002121168,-0.001007579,0.104185000,-0.292248011,9.811385155,-0.011134842,0.028228926,-0.999539465
1.422594364,264,200.156121775,0.999882996,-0.014141000,-0.005541000,-0.001424000,-0.007410179,0.004626868,-0.001537338,0.102760002,-0.286677986,9.808750153,-0.011120977,0.028262910,-0.999538659
1.427692947,265,200.156121775,0.999882996,-0.014147000,-0.005534000,-0.001428000,0.000816709,0.000662824,-0.000872001,0.104918003,-0.279754996,9.803829193,-0.011107108,0.028274885,-0.999538474
1.432780363,266,200.156121775,0.999882996,-0.014139000,-0.005534000,-0.001432000,0.001589960,0.000563811,-0.001452637,0.110005997,-0.284716994,9.804864883,-0.011107199,0.028258843,-0.999538927
1.437830529,267,200.156121775,0.999882996,-0.014139000,-0.005531000,-0.001435000,-0.000390657,0.002376929,-0.000901672,0.113257997,-0.285127014,9.796772003,-0.011101285,0.028258818,-0.999538993
1.443077915,268,200.156121775,0.999882996,-0.014135000,-0.005528000,-0.001436000,0.002681995,0.000229005,-0.000543618,0.111022003,-0.287622005,9.794382095,-0.011095302,0.028250816,-0.999539286
1.449117923,269,200.156121775,0.999882996,-0.014125000,-0.005534000,-0.001438000,0.002368935,-0.003059632,0.000634724,0.118086003,-0.279917985,9.797876358,-0.011107328,0.028230778,-0.999539718
1.452797154,270,200.156121775,0.999882996,-0.014122000,-0.005539000,-0.001437000,0.000530039,-0.000913261,-0.000256755,0.122961998,-0.276986003,9.804123878,-0.011117291,0.028224776,-0.999539777
1.457843961,271,200.156121775,0.999884009,-0.014119000,-0.005540000,-0.001440000,0.001053620,0.001713163,-0.001603504,0.124683000,-0.273892999,9.807305336,-0.011119377,0.028218770,-0.999539924
1.462899088,272,200.156121775,0.999882996,-0.014119000,-0.005538000,-0.001443000,-0.001898325,-0.000176400,-0.000867114,0.118450999,-0.271656990,9.804521561,-0.011115451,0.028218714,-0.999539969
1.467994887,273,200.156121775,0.999884009,-0.014116000,-0.005542000,-0.001445000,0.003606496,-0.000242793,-0.000160256,0.115912996,-0.285797000,9.801087379,-0.011123509,0.028212710,-0.999540050
1.472711352,274,200.156121775,0.999884009,-0.014097000,-0.005540000,-0.001442000,0.007018283,0.001478346,0.002182517,0.111656003,-0.282027990,9.793671608,-0.011119370,0.028174751,-0.999541166
1.477734094,275,200.156121775,0.999884009,-0.014082000,-0.005537000,-0.001437000,0.004362224,0.000331770,0.002760360,0.115728997,-0.281345993,9.798120499,-0.011113187,0.028144819,-0.999542078
1.482756004,276,200.156121775,0.999884009,-0.014079000,-0.005538000,-0.001432000,-0.003392676,-0.000082257,0.002367556,0.112713002,-0.287678003,9.803758621,-0.011115037,0.028138873,-0.999542225
1.487915389,277,200.156121775,0.999884009,-0.014085000,-0.005538000,-0.001430000,-0.003863374,0.001316921,-0.001483006,0.114243001,-0.279763013,9.804909706,-0.011114998,0.028150895,-0.999541887
1.492461291,278,200.156121775,0.999884009,-0.014092000,-0.005536000,-0.001434000,-0.002375707,0.001600170,-0.000220837,0.117186002,-0.276441008,9.802860260,-0.011111131,0.028164854,-0.999541536
1.497520706,279,200.156121775,0.999884009,-0.014100000,-0.005538000,-0.001433000,-0.006002955,-0.002293729,-0.000707365,0.116028003,-0.281347990,9.800914764,-0.011115125,0.028180858,-0.999541041
1.502633306,280,200.156121775,0.999884009,-0.014109000,-0.005544000,-0.001431000,-0.002740952,-0.002190231,0.001542173,0.114009000,-0.278961003,9.795968056,-0.011127094,0.028198859,-0.999540400
1.507803410,281,200.156121775,0.999884009,-0.014109000,-0.005547000,-0.001428000,0.001617711,0.000189368,0.001739570,0.112291999,-0.278414994,9.798499107,-0.011133009,0.028198884,-0.999540334
1.512885450,282,200.156121775,0.999884009,-0.014099000,-0.005545000,-0.001428000,0.002899498,0.002694212,-0.001034195,0.111125998,-0.279949993,9.800622940,-0.011128981,0.028178893,-0.999540942
1.517518137,283,200.156121775,0.999884009,-0.014091000,-0.005541000,-0.001427000,0.003701320,0.001071981,0.000198601,0.113035999,-0.283840001,9.797844887,-0.011120930,0.028162917,-0.999541482
1.522738195,284,200.156121775,0.999884009,-0.014075000,-0.005543000,-0.001426000,0.007432764,-0.000278834,0.000237819,0.116706997,-0.291132003,9.791675568,-0.011124856,0.028130926,-0.999542339
1.527851722,285,200.156121775,0.999884009,-0.014055000,-0.005545000,-0.001426000,0.006723654,-0.000678881,0.000026023,0.111382999,-0.279365003,9.790089607,-0.011128799,0.028090925,-0.999543420
1.532909569,286,200.156121775,0.999885023,-0.014040000,-0.005549000,-0.001424000,0.004396763,-0.000974278,0.000816884,0.114596002,-0.277743995,9.797352791,-0.011136710,0.028060967,-0.999544174
1.538022137,287,200.156121775,0.999885023,-0.014034000,-0.005550000,-0.001425000,-0.000038450,0.000211377,-0.001271979,0.114115000,-0.288765013,9.797275543,-0.011138720,0.028048956,-0.999544489
1.542579815,288,200.156121775,0.999885023,-0.014036000,-0.005557000,-0.001429000,-0.003328482,-0.004001796,-0.001504404,0.114992999,-0.283838004,9.805212021,-0.011152837,0.028052890,-0.999544221
1.547669279,289,200.156121775,0.999884009,-0.014044000,-0.005563000,-0.001430000,-0.003388557,-0.002039260,0.000373483,0.110721998,-0.276748002,9.804335594,-0.011164876,0.028068832,-0.999543638
1.552798135,290,200.156121775,0.999884009,-0.014050000,-0.005571000,-0.001430000,-0.002062386,-0.002564011,0.000776462,0.109341003,-0.278564006,9.805439949,-0.011180890,0.028080808,-0.999543123
1.557908494,291,200.156121775,0.999884009,-0.014051000,-0.005573000,-0.001429000,-0.000298661,0.000867254,-0.000910399,0.110692002,-0.279861987,9.803024292,-0.011184865,0.028082812,-0.999543022
1.563026054,292,200.156121775,0.999884009,-0.014044000,-0.005567000,-0.001432000,0.004191129,0.003558831,-0.001302522,0.113920003,-0.281269997,9.799714088,-0.011172930,0.028068798,-0.999543549
1.567598165,293,200.156121775,0.999885023,-0.014033000,-0.005565000,-0.001433000,0.002793382,-0.001612684,-0.000321210,0.114635997,-0.287111998,9.803594589,-0.011168938,0.028046824,-0.999544211
1.572739245,294,200.156121775,0.999885023,-0.014027000,-0.005569000,-0.001431000,0.000949372,-0.000251851,0.001163995,0.119060002,-0.287797004,9.800188065,-0.011176864,0.028034837,-0.999544459
1.577849381,295,200.156121775,0.999885023,-0.014022000,-0.005567000,-0.001426000,0.001413455,0.001127011,0.002161730,0.113214001,-0.286662996,9.806708336,-0.011172710,0.028024899,-0.999544784
1.582567638,296,200.156121775,0.999885023,-0.014020000,-0.005570000,-0.001423000,-0.000172683,-0.001652774,0.001127011,0.110892996,-0.282218993,9.800118446,-0.011178620,0.028020923,-0.999544829
1.587693390,297,200.156121775,0.999885023,-0.014021000,-0.005575000,-0.001424000,-0.000799483,-0.001595632,-0.001680595,0.115222000,-0.284397006,9.805564880,-0.011188649,0.028022898,-0.999544662
1.592824166,298,200.156121775,0.999885023,-0.014026000,-0.005578000,-0.001427000,-0.002857942,0.000030107,-0.000283564,0.117229000,-0.281571001,9.810174942,-0.011194748,0.028032855,-0.999544314
1.597976478,299,200.156121775,0.999885023,-0.014026000,-0.005579000,-0.001423000,0.001282241,-0.001947683,0.003842011,0.124549001,-0.284094006,9.805822372,-0.011196635,0.028032897,-0.999544292
1.602661519,300,199.991600353,0.999885023,-0.014024000,-0.005583000,-0.001417000,-0.000303059,0.000816535,0.002256781,0.126881003,-0.277004004,9.800751686,-0.011204460,0.028028952,-0.999544315
1.607788583,301,199.991600353,0.999885023,-0.014019000,-0.005580000,-0.001416000,0.001834882,0.001758489,-0.001387624,0.119979002,-0.279280990,9.799389839,-0.011198419,0.028018974,-0.999544662
1.612839293,302,199.991600353,0.999885023,-0.014021000,-0.005582000,-0.001420000,-0.004710504,-0.001214697,-0.001566258,0.121257000,-0.284420997,9.805065155,-0.011202536,0.028022923,-0.999544506
1.617846131,303,199.991600353,0.999885023,-0.014031000,-0.005580000,-0.001419000,-0.003742056,0.003928632,0.002243446,0.116146997,-0.285174996,9.810649872,-0.011198537,0.028042936,-0.999543989
1.622967851,304,199.991600353,0.999884009,-0.014038000,-0.005575000,-0.001414000,-0.002316872,-0.000717906,0.001779293,0.115731001,-0.282496005,9.805357933,-0.011188406,0.028056978,-0.999543708
1.627503001,305,199.991600353,0.999884009,-0.014042000,-0.005580000,-0.001411000,-0.002354152,-0.001640452,0.000050475,0.118863001,-0.283890009,9.804044724,-0.011198332,0.028064996,-0.999543372
1.632952054,306,199.991600353,0.999884009,-0.014045000,-0.005580000,-0.001416000,-0.000428391,0.003077242,-0.002629967,0.106849000,-0.281686008,9.798032761,-0.011198481,0.028070939,-0.999543203
1.637507653,307,199.991600353,0.999884009,-0.014041000,-0.005570000,-0.001418000,0.000540790,0.003245928,0.001097184,0.107699998,-0.275985986,9.799416542,-0.011178528,0.028062946,-0.999543651
1.642644413,308,199.991600353,0.999884009,-0.014041000,-0.005565000,-0.001418000,0.000319605,0.002131064,-0.000986041,0.111804999,-0.280983001,9.802644730,-0.011168529,0.028062961,-0.999543762
1.647866230,309,199.991600353,0.999885023,-0.014041000,-0.005562000,-0.001420000,-0.000379993,0.000520579,0.000453995,0.112842999,-0.285382986,9.801738739,-0.011162597,0.028062975,-0.999543829
1.652472805,310,199.991600353,0.999885023,-0.014039000,-0.005566000,-0.001416000,0.000341823,-0.001609490,0.002203304,0.109912001,-0.283654988,9.798870087,-0.011170479,0.028059008,-0.999543852
1.657455739,311,199.991600353,0.999884009,-0.014043000,-0.005566000,-0.001415000,-0.004518238,0.001935291,-0.001061073,0.112692997,-0.282175004,9.798937798,-0.011170450,0.028066990,-0.999543628
1.662527314,312,199.991600353,0.999884009,-0.014047000,-0.005569000,-0.001416000,0.001562576,-0.004510157,0.002326506,0.114532001,-0.282240987,9.803795815,-0.011176489,0.028074969,-0.999543336
1.667680362,313,199.991600353,0.999884009,-0.014044000,-0.005580000,-0.001413000,-0.001234716,0.000804509,-0.001409196,0.115046002,-0.289375991,9.806422234,-0.011198394,0.028068973,-0.999543259
1.675542897,314,199.991600353,0.999884009,-0.014042000,-0.005572000,-0.001419000,0.001116260,0.004094019,-0.001035801,0.119370997,-0.287344992,9.799967766,-0.011182559,0.028064930,-0.999543550
1.677851481,315,199.991600353,0.999884009,-0.014045000,-0.005569000,-0.001422000,-0.004406381,-0.000647465,-0.002593908,0.113067001,-0.276349008,9.800836563,-0.011176652,0.028070904,-0.999543448
1.682826158,316,199.991600353,0.999884009,-0.014055000,-0.005575000,-0.001430000,-0.004010295,-0.003351922,-0.002386720,0.112071998,-0.274293005,9.802987099,-0.011188904,0.028090794,-0.999542753
1.687941350,317,199.991600353,0.999884009,-0.014059000,-0.005582000,-0.001431000,-0.001019761,0.000047717,0.000271503,0.120514996,-0.286139995,9.798233032,-0.011202942,0.028098762,-0.999542372
1.693051230,318,199.991600353,0.999884009,-0.014058000,-0.005582000,-0.001431000,-0.000475951,0.000978414,-0.000012357,0.117246002,-0.288318008,9.800150871,-0.011202939,0.028096764,-0.999542428
1.697685517,319,199.991600353,0.999884009,-0.014058000,-0.005579000,-0.001434000,-0.000548540,0.000999114,-0.002224649,0.112972997,-0.287411004,9.801636696,-0.011197024,0.028096739,-0.999542495
1.702804965,320,199.991600353,0.999884009,-0.014058000,-0.005574000,-0.001437000,0.001591007,0.004015374,-0.000294123,0.116322003,-0.279100001,9.808625221,-0.011187110,0.028096720,-0.999542606
1.707824668,321,199.991600353,0.999884009,-0.014047000,-0.005572000,-0.001437000,0.004572187,-0.003137578,0.000103777,0.119044997,-0.276120991,9.809854507,-0.011183079,0.028074727,-0.999543269
1.712866226,322,199.991600353,0.999884009,-0.014040000,-0.005586000,-0.001434000,0.001136244,-0.005399246,0.002229815,0.113833003,-0.275243998,9.799763680,-0.011210971,0.028060722,-0.999543350
1.717963850,323,199.991600353,0.999884009,-0.014036000,-0.005596000,-0.001433000,-0.000430695,-0.002315302,-0.001549364,0.110339999,-0.280954003,9.791728973,-0.011230929,0.028052705,-0.999543351
1.722503607,324,199.991600353,0.999884009,-0.014038000,-0.005597000,-0.001433000,-0.001661623,-0.000063495,0.001758384,0.115624003,-0.284734011,9.795558929,-0.011232935,0.028056703,-0.999543216
1.727617679,325,199.991600353,0.999884009,-0.014040000,-0.005599000,-0.001428000,-0.001013338,-0.001417504,0.001388811,0.116952002,-0.280389011,9.805036545,-0.011236799,0.028060752,-0.999543059
1.732736903,326,199.991600353,0.999884009,-0.014040000,-0.005605000,-0.001426000,-0.000082030,-0.002597958,0.001484507,0.115662001,-0.278277010,9.808669090,-0.011248742,0.028060757,-0.999542925
1.737813246,327,199.991600353,0.999884009,-0.014036000,-0.005611000,-0.001422000,0.000787824,-0.001946880,0.001925151,0.111822002,-0.277803004,9.803818703,-0.011260617,0.028052786,-0.999543015
1.742846389,328,199.991600353,0.999884009,-0.014041000,-0.005618000,-0.001416000,-0.005395197,-0.002125008,0.003007342,0.105766997,-0.284758002,9.800276756,-0.011274461,0.028062833,-0.999542577
1.748748762,329,199.991600353,0.999884009,-0.014053000,-0.005620000,-0.001413000,-0.004371841,-0.000131458,-0.000596850,0.109599002,-0.283055007,9.803990364,-0.011278410,0.028086858,-0.999541858
1.753912115,330,199.991600353,0.999884009,-0.014054000,-0.005620000,-0.001415000,0.002811551,-0.000342311,-0.000641984,0.110458001,-0.287387013,9.804938316,-0.011278469,0.028088836,-0.999541801
1.757474928,331,199.991600353,0.999884009,-0.014046000,-0.005625000,-0.001415000,-0.000115227,-0.002449953,-0.000521312,0.115121000,-0.287149012,9.799197197,-0.011288445,0.028072823,-0.999542139
1.762550215,332,199.991600353,0.999884009,-0.014054000,-0.005629000,-0.001415000,-0.005962533,-0.002027968,-0.000093218,0.118409000,-0.273575991,9.793323517,-0.011296467,0.028088810,-0.999541599
1.767612958,333,199.991600353,0.999884009,-0.014064000,-0.005637000,-0.001417000,-0.002673356,-0.002004406,-0.001282468,0.115111999,-0.275180012,9.795073509,-0.011312549,0.028108762,-0.999540856
1.772723893,334,199.991600353,0.999884009,-0.014065000,-0.005643000,-0.001420000,-0.000577582,-0.001349262,0.000239791,0.116748996,-0.284572005,9.794240952,-0.011324635,0.028110712,-0.999540665
1.777821805,335,199.991600353,0.999884009,-0.014060000,-0.005648000,-0.001417000,0.003133966,-0.002263151,0.001296483,0.120954998,-0.287223995,9.802072525,-0.011334536,0.028100732,-0.999540833
1.783932822,336,199.991600353,0.999884009,-0.014056000,-0.005656000,-0.001414000,-0.001254787,-0.002463235,0.001233895,0.116299003,-0.291265994,9.802798271,-0.011350438,0.028092744,-0.999540877
1.787568916,337,199.991600353,0.999884009,-0.014056000,-0.005653000,-0.001413000,0.000530685,0.004371212,-0.000547737,0.113167003,-0.291709006,9.803979874,-0.011344411,0.028092764,-0.999540945
1.792876975,338,199.991600353,0.999884009,-0.014052000,-0.005642000,-0.001417000,0.002267933,0.004300893,-0.002028596,0.116227999,-0.284523994,9.804753304,-0.011322515,0.028084751,-0.999541418
1.797930470,339,199.991600353,0.999884009,-0.014047000,-0.005640000,-0.001421000,-0.000798488,-0.000625648,-0.001396700,0.116462000,-0.281347990,9.804205894,-0.011318613,0.028074712,-0.999541744
1.802479156,340,199.991600353,0.999884009,-0.014052000,-0.005642000,-0.001429000,-0.003421735,0.000413835,-0.004087195,0.109548002,-0.282860011,9.800354004,-0.011322852,0.028084615,-0.999541418
1.807826832,341,199.991600353,0.999884009,-0.014055000,-0.005638000,-0.001436000,0.000473927,0.002532124,-0.001123451,0.106223002,-0.288309991,9.795629501,-0.011315058,0.028090547,-0.999541340
1.812666691,342,199.991600353,0.999884009,-0.014054000,-0.005635000,-0.001435000,-0.000467417,0.000500683,0.001366209,0.114762001,-0.284260005,9.796066284,-0.011309027,0.028088568,-0.999541464
1.818234339,343,199.991600353,0.999884009,-0.014051000,-0.005637000,-0.001432000,0.001871028,-0.001711348,0.000471431,0.123764001,-0.292378008,9.801593781,-0.011312934,0.028082595,-0.999541587
1.822786449,344,199.991600353,0.999884009,-0.014046000,-0.005643000,-0.001428000,0.000760335,-0.000297771,0.002025786,0.117119998,-0.289595008,9.806375504,-0.011324806,0.028072626,-0.999541733
1.827874856,345,199.991600353,0.999884009,-0.014034000,-0.005638000,-0.001423000,0.007489260,0.005514350,0.000661026,0.110593997,-0.271600008,9.805658340,-0.011314633,0.028048699,-0.999542520
1.832938783,346,199.991600353,0.999884009,-0.014021000,-0.005623000,-0.001421000,0.000120882,0.004700608,0.001336852,0.115419999,-0.275114000,9.803542137,-0.011284544,0.028022767,-0.999543587
1.837465869,347,199.991600353,0.999884009,-0.014022000,-0.005621000,-0.001421000,-0.001933668,-0.001102280,-0.000048503,0.113587998,-0.283086985,9.805435181,-0.011280547,0.028024773,-0.999543576
1.842527076,348,199.991600353,0.999884009,-0.014022000,-0.005621000,-0.001417000,0.000744313,0.000735185,0.002227319,0.111893997,-0.286177009,9.804394722,-0.011280435,0.028024818,-0.999543576
1.849917410,349,199.991600353,0.999884009,-0.014021000,-0.005624000,-0.001413000,-0.002208854,-0.001290043,0.001240824,0.109761000,-0.277635008,9.799427986,-0.011286319,0.028022854,-0.999543564
1.852904790,350,199.991600353,0.999884009,-0.014031000,-0.005630000,-0.001412000,-0.004590774,-0.002203670,0.000517124,0.114882000,-0.286024988,9.795879364,-0.011298318,0.028042845,-0.999542868
1.857841738,351,199.991600353,0.999884009,-0.014034000,-0.005635000,-0.001410000,0.001213981,0.000483893,0.000458917,0.120325997,-0.283733010,9.800559044,-0.011308268,0.028048854,-0.999542587
1.862510235,352,199.991600353,0.999884009,-0.014032000,-0.005631000,-0.001414000,-0.000407604,0.001769589,-0.002618570,0.112916000,-0.285946012,9.801180840,-0.011300376,0.028044820,-0.999542790
1.867569841,353,199.991600353,0.999884009,-0.014031000,-0.005628000,-0.001417000,0.000691447,0.001937001,-0.000017174,0.114090003,-0.288792014,9.797122002,-0.011294458,0.028042794,-0.999542913
1.872693321,354,199.991600353,0.999884009,-0.014029000,-0.005626000,-0.001416000,-0.000353394,0.000698289,0.000695374,0.115202002,-0.287633985,9.800081253,-0.011290425,0.028038813,-0.999543071
1.877776705,355,199.991600353,0.999884009,-0.014025000,-0.005625000,-0.001416000,0.002465697,-0.000725481,-0.000420624,0.116411999,-0.285591006,9.802909851,-0.011288413,0.028030816,-0.999543318
1.882844280,356,199.991600353,0.999884009,-0.014023000,-0.005635000,-0.001417000,-0.002891051,-0.005487996,-0.000596955,0.110142998,-0.282640994,9.800052643,-0.011308434,0.028026778,-0.999543204
1.887922959,357,199.991600353,0.999884009,-0.014033000,-0.005650000,-0.001416000,-0.006067131,-0.004266719,0.000598578,0.110301003,-0.286832988,9.802477837,-0.011338431,0.028046744,-0.999542305
1.892940549,358,199.991600353,0.999884009,-0.014043000,-0.005659000,-0.001412000,-0.002382671,-0.002837434,0.002267130,0.116067000,-0.286202013,9.808421135,-0.011356345,0.028066760,-0.999541540
1.897456114,359,199.991600353,0.999884009,-0.014043000,-0.005667000,-0.001406000,0.000617585,-0.001839071,0.002868501,0.115691997,-0.286509991,9.797007561,-0.011372174,0.028066806,-0.999541359
1.902492777,360,199.991600353,0.999884009,-0.014041000,-0.005671000,-0.001406000,0.000617497,-0.000799972,-0.000441638,0.112756997,-0.284581989,9.794143677,-0.011380168,0.028062796,-0.999541380
1.907619937,361,199.991600353,0.999884009,-0.014040000,-0.005672000,-0.001403000,-0.000313932,-0.000032306,0.002277759,0.109105997,-0.282440007,9.799019814,-0.011382080,0.028060827,-0.999541414
1.912742233,362,199.991600353,0.999884009,-0.014042000,-0.005676000,-0.001401000,-0.002425467,-0.002255716,-0.001087759,0.106980003,-0.282911003,9.805212021,-0.011390029,0.028064839,-0.999541211
1.917884017,363,199.991600353,0.999884009,-0.014049000,-0.005680000,-0.001406000,-0.003623705,-0.002117207,-0.000934030,0.111680999,-0.287077993,9.807548523,-0.011398188,0.028078769,-0.999540726
1.922460160,364,199.991600353,0.999884009,-0.014048000,-0.005680000,-0.001404000,0.003611907,0.003720117,0.001571250,0.109495997,-0.279648989,9.802712440,-0.011398129,0.028076791,-0.999540783
1.927543095,365,199.991600353,0.999884009,-0.014035000,-0.005678000,-0.001402000,0.003564329,-0.003128014,0.000879122,0.108083002,-0.285705000,9.802810669,-0.011394037,0.028050822,-0.999541558
1.932950996,366,199.991600353,0.999884009,-0.014029000,-0.005686000,-0.001400000,0.001228991,-0.001720999,-0.000244521,0.111901000,-0.288134992,9.799740791,-0.011409962,0.028038825,-0.999541713
1.937850952,367,199.991600353,0.999884009,-0.014029000,-0.005691000,-0.001399000,-0.001357639,-0.000800722,-0.000268030,0.108304001,-0.284191012,9.804205894,-0.011419933,0.028038822,-0.999541599
1.942554520,368,199.991600353,0.999884009,-0.014035000,-0.005692000,-0.001401000,-0.003948668,-0.001374220,-0.001188307,0.109278001,-0.281536996,9.808345795,-0.011422006,0.028050794,-0.999541240
1.948253434,369,199.991600353,0.999884009,-0.014040000,-0.005693000,-0.001403000,-0.001017370,0.001404781,0.000121684,0.113309003,-0.282671988,9.803691864,-0.011424075,0.028060768,-0.999540936
1.952888394,370,199.991600353,0.999884009,-0.014033000,-0.005689000,-0.001403000,0.004764382,0.003424476,-0.001641046,0.117439002,-0.280948013,9.796937943,-0.011416056,0.028046781,-0.999541420
1.957554778,371,199.991600353,0.999884009,-0.014025000,-0.005688000,-0.001407000,-0.001071004,-0.002337450,0.000460069,0.114687003,-0.285504997,9.794682503,-0.011414147,0.028030740,-0.999541892
1.962788340,372,199.991600353,0.999884009,-0.014031000,-0.005697000,-0.001403000,-0.002396634,-0.003247255,0.002487513,0.109874003,-0.280992001,9.798716545,-0.011432049,0.028042758,-0.999541350
1.967797322,373,199.991600353,0.999884009,-0.014035000,-0.005710000,-0.001400000,-0.001182914,-0.005821232,-0.001197086,0.112311997,-0.287658006,9.799568176,-0.011457974,0.028050755,-0.999540829
1.972969346,374,199.991600353,0.999884009,-0.014038000,-0.005719000,-0.001406000,-0.003450237,-0.000186680,-0.002201192,0.117115997,-0.284828991,9.803429604,-0.011476148,0.028056662,-0.999540455
1.977611698,375,199.991600353,0.999884009,-0.014049000,-0.005717000,-0.001408000,-0.005277684,0.002106054,0.000690470,0.120516002,-0.277916014,9.802488327,-0.011472236,0.028078642,-0.999539883
1.982689225,376,199.991600353,0.999882996,-0.014057000,-0.005715000,-0.001403000,-0.002953725,0.000556289,0.003998078,0.120858997,-0.281969011,9.802404404,-0.011468107,0.028094675,-0.999539479
1.987875042,377,199.991600353,0.999882996,-0.014061000,-0.005715000,-0.001399000,-0.001256759,-0.000440172,-0.000575313,0.120598003,-0.283977002,9.793176651,-0.011468005,0.028102719,-0.999539254
1.992971258,378,199.991600353,0.999882996,-0.014063000,-0.005725000,-0.001402000,-0.000922721,-0.005135841,-0.000013299,0.118699998,-0.279110998,9.794089317,-0.011488093,0.028106656,-0.999538913
1.998118546,379,199.991600353,0.999882996,-0.014071000,-0.005734000,-0.001406000,-0.005861811,-0.001143959,-0.001092436,0.114295997,-0.279406995,9.795142174,-0.011506226,0.028122583,-0.999538256
2.003363980,380,199.991600353,0.999882996,-0.014077000,-0.005733000,-0.001403000,-0.000646924,0.001233424,0.001366680,0.111042000,-0.279233992,9.796707153,-0.011504159,0.028134620,-0.999537942
2.007599285,381,199.991600353,0.999882996,-0.014074000,-0.005730000,-0.001406000,0.002117748,0.001915638,-0.002062421,0.116002001,-0.285777003,9.797796249,-0.011498235,0.028128593,-0.999538179
2.012731117,382,199.991600353,0.999882996,-0.014072000,-0.005734000,-0.001404000,-0.000478098,-0.003311535,0.002206777,0.117210999,-0.277994990,9.803484917,-0.011506172,0.028124606,-0.999538200
2.018301837,383,199.991600353,0.999882996,-0.014068000,-0.005745000,-0.001398000,0.001153610,-0.005234626,0.002748684,0.115462996,-0.284801006,9.803668976,-0.011527990,0.028116645,-0.999538173
2.022849755,384,199.991600353,0.999882996,-0.014066000,-0.005757000,-0.001396000,0.000328698,-0.002915171,0.000217939,0.117608003,-0.289357990,9.805972099,-0.011551925,0.028112634,-0.999538009
2.027810544,385,199.991600353,0.999882996,-0.014061000,-0.005759000,-0.001395000,0.002649916,0.001401656,0.000205006,0.110766999,-0.286195993,9.803306580,-0.011555882,0.028102642,-0.999538244
2.032916775,386,199.991600353,0.999882996,-0.014053000,-0.005760000,-0.001392000,0.002426130,-0.000684029,0.000662021,0.116797999,-0.276739001,9.797422409,-0.011557776,0.028086676,-0.999538671
2.039815006,387,199.991600353,0.999882996,-0.014050000,-0.005764000,-0.001390000,-0.001025590,-0.001188604,0.001304302,0.117477000,-0.284700990,9.796302795,-0.011565710,0.028080689,-0.999538748
2.043279993,388,199.991600353,0.999882996,-0.014058000,-0.005769000,-0.001390000,-0.006891485,-0.002189411,-0.001600956,0.119406000,-0.286870003,9.800312042,-0.011575731,0.028096673,-0.999538183
2.050579767,389,199.991600353,0.999882996,-0.014074000,-0.005770000,-0.001391000,-0.004392644,0.002243411,0.000732009,0.113549002,-0.289925009,9.801136971,-0.011577804,0.028128654,-0.999537259
2.052837757,390,199.991600353,0.999882996,-0.014081000,-0.005766000,-0.001390000,-0.001186754,0.000412718,0.000206822,0.106856003,-0.290241003,9.809377670,-0.011569796,0.028142676,-0.999536957
2.057926645,391,199.991600353,0.999882996,-0.014076000,-0.005763000,-0.001390000,0.003528410,0.002139791,0.000530650,0.110595003,-0.281874985,9.814123154,-0.011563782,0.028132685,-0.999537308
2.062432162,392,199.991600353,0.999882996,-0.014066000,-0.005760000,-0.001388000,0.004247503,-0.000088558,0.000101473,0.112625003,-0.281417996,9.810785294,-0.011557700,0.028112718,-0.999537940
2.067423192,393,199.991600353,0.999882996,-0.014056000,-0.005767000,-0.001388000,0.001141725,-0.003757362,0.000378457,0.117086001,-0.282133013,9.813941956,-0.011571670,0.028092701,-0.999538341
2.072535599,394,199.991600353,0.999882996,-0.014055000,-0.005776000,-0.001389000,-0.002026554,-0.002382584,-0.000473717,0.113260001,-0.279262990,9.809248924,-0.011589694,0.028090665,-0.999538190
2.077596006,395,199.991600353,0.999882996,-0.014062000,-0.005780000,-0.001389000,-0.004567963,0.000309831,-0.000032917,0.118872002,-0.283531010,9.797666550,-0.011597711,0.028104652,-0.999537704
2.082566524,396,199.991600353,0.999882996,-0.014070000,-0.005777000,-0.001391000,-0.002755770,0.001863314,-0.000487662,0.118575998,-0.284269989,9.792815208,-0.011591791,0.028120635,-0.999537323
2.088526818,397,199.991600353,0.999882996,-0.014076000,-0.005781000,-0.001393000,-0.002862445,-0.002539751,-0.000204151,0.119309001,-0.285506010,9.792638779,-0.011599863,0.028132600,-0.999536893
2.092625864,398,199.991600353,0.999882996,-0.014080000,-0.005777000,-0.001393000,-0.002074271,0.003267501,-0.000359416,0.115506999,-0.288127989,9.795822144,-0.011591875,0.028140611,-0.999536760
2.097708608,399,199.991600353,0.999882996,-0.014081000,-0.005769000,-0.001393000,-0.000522674,0.002737270,-0.000438654,0.113278002,-0.289781988,9.801472664,-0.011575880,0.028142633,-0.999536888
2.102826647,400,200.028404033,0.999882996,-0.014079000,-0.005768000,-0.001395000,0.001529240,-0.002040203,-0.000441638,0.114915997,-0.284099996,9.807411194,-0.011573931,0.028138612,-0.999537024
2.107797101,401,200.028404033,0.999882996,-0.014076000,-0.005777000,-0.001392000,0.000331019,-0.003457654,0.001630277,0.109447002,-0.275231004,9.802065849,-0.011591836,0.028132623,-0.999536985
2.112807523,402,200.028404033,0.999882996,-0.014074000,-0.005778000,-0.001390000,0.000110444,0.001947508,0.001409353,0.105953999,-0.278604001,9.797523499,-0.011593773,0.028128643,-0.999537075
2.118020124,403,200.028404033,0.999882996,-0.014071000,-0.005775000,-0.001387000,0.001956130,0.000352452,0.001231592,0.114818998,-0.284577996,9.794578552,-0.011587681,0.028122687,-0.999537313
2.122562442,404,200.028404033,0.999882996,-0.014062000,-0.005774000,-0.001388000,0.003586355,0.000789255,-0.000694240,0.117937997,-0.286918998,9.800413132,-0.011585685,0.028104680,-0.999537842
2.127679490,405,200.028404033,0.999882996,-0.014050000,-0.005775000,-0.001388000,0.006903475,-0.002727566,0.000891776,0.121325999,-0.286821991,9.799252510,-0.011587651,0.028080681,-0.999538494
2.132702072,406,200.028404033,0.999882996,-0.014030000,-0.005787000,-0.001384000,0.006339472,-0.005292798,0.000989654,0.119117998,-0.286190987,9.799640656,-0.011611481,0.028040699,-0.999539339
2.137421033,407,200.028404033,0.999884009,-0.014016000,-0.005794000,-0.001384000,0.004335520,-0.000862228,-0.000033091,0.122769997,-0.281917006,9.802846909,-0.011625452,0.028012710,-0.999539963
2.142460416,408,200.028404033,0.999884009,-0.014010000,-0.005796000,-0.001386000,-0.000758625,-0.000141145,0.000473874,0.111313999,-0.283320993,9.805837631,-0.011629491,0.028000684,-0.999540253
2.147631192,409,200.028404033,0.999884009,-0.014015000,-0.005800000,-0.001384000,-0.004206470,-0.002840907,0.001505294,0.109348997,-0.286287993,9.802120209,-0.011637448,0.028010695,-0.999539880
2.152775057,410,200.028404033,0.999882996,-0.014027000,-0.005806000,-0.001378000,-0.006840975,-0.002485279,0.001940056,0.109705999,-0.288673997,9.803195953,-0.011649300,0.028034717,-0.999539067
2.157873448,411,200.028404033,0.999882996,-0.014046000,-0.005814000,-0.001376000,-0.007234285,-0.002960707,0.001821565,0.106186002,-0.285299003,9.805500984,-0.011665294,0.028072714,-0.999537815
2.162968512,412,200.028404033,0.999882996,-0.014057000,-0.005820000,-0.001374000,-0.002819457,-0.001593416,-0.000039933,0.110619999,-0.282315999,9.807975769,-0.011677267,0.028094718,-0.999537057
2.167503373,413,200.028404033,0.999882996,-0.014061000,-0.005821000,-0.001377000,-0.000959181,0.000692023,-0.002199342,0.113168001,-0.280535012,9.806283951,-0.011679362,0.028102679,-0.999536808
2.172617317,414,200.028404033,0.999882996,-0.014059000,-0.005815000,-0.001379000,0.002383840,0.004402488,0.000539865,0.119409002,-0.277525008,9.802250862,-0.011667414,0.028098672,-0.999537061
2.177668860,415,200.028404033,0.999882996,-0.014049000,-0.005802000,-0.001381000,0.004260733,0.003780837,0.001486218,0.118690997,-0.282267004,9.792943001,-0.011641446,0.028078688,-0.999537925
2.182737651,416,200.028404033,0.999882996,-0.014034000,-0.005796000,-0.001375000,0.006835983,0.003054640,0.002322562,0.117769003,-0.285241991,9.791144371,-0.011629237,0.028048777,-0.999538906
2.187814122,417,200.028404033,0.999882996,-0.014026000,-0.005790000,-0.001373000,-0.001211189,0.001625669,0.000361964,0.113440000,-0.279861003,9.796204567,-0.011617160,0.028032819,-0.999539494
2.192874849,418,200.028404033,0.999882996,-0.014036000,-0.005787000,-0.001378000,-0.005978975,0.000244137,-0.004247660,0.114145003,-0.279922009,9.808351517,-0.011611329,0.028052766,-0.999539003
2.197371982,419,200.028404033,0.999882996,-0.014046000,-0.005791000,-0.001384000,-0.003401018,-0.001980704,0.000321141,0.111855000,-0.286709011,9.809090614,-0.011619524,0.028072684,-0.999538348
2.202624872,420,200.028404033,0.999882996,-0.014054000,-0.005795000,-0.001386000,-0.002809823,-0.000122156,-0.001909966,0.111840002,-0.291626990,9.801039696,-0.011627602,0.028088648,-0.999537806
2.207663423,421,200.028404033,0.999882996,-0.014057000,-0.005793000,-0.001388000,-0.001789189,0.000671515,0.000180275,0.112925999,-0.284184992,9.797594070,-0.011623667,0.028094630,-0.999537684
2.212560659,422,200.028404033,0.999882996,-0.014063000,-0.005790000,-0.001392000,-0.001313133,0.001781981,-0.003398994,0.111649998,-0.281167001,9.799738884,-0.011617796,0.028106589,-0.999537416
2.218205652,423,200.028404033,0.999882996,-0.014061000,-0.005789000,-0.001400000,0.000595681,0.000113935,-0.002268544,0.108645998,-0.284985989,9.804360390,-0.011616016,0.028102501,-0.999537552
2.222519134,424,200.028404033,0.999882996,-0.014054000,-0.005787000,-0.001399000,0.004064628,0.001117534,0.003132552,0.117592998,-0.277833998,9.807411194,-0.011611969,0.028088520,-0.999537991
2.227558836,425,200.028404033,0.999882996,-0.014044000,-0.005787000,-0.001395000,0.001903212,-0.000596100,0.000615054,0.114794999,-0.276831001,9.804649353,-0.011611829,0.028068568,-0.999538553
2.232591659,426,200.028404033,0.999882996,-0.014043000,-0.005789000,-0.001393000,-0.001640418,0.001159527,-0.000078994,0.110990003,-0.289072007,9.800560951,-0.011615769,0.028066585,-0.999538563
2.237562656,427,200.028404033,0.999882996,-0.014046000,-0.005783000,-0.001395000,-0.001326887,0.003456886,-0.000238482,0.114721999,-0.282974988,9.799292564,-0.011603835,0.028072579,-0.999538534
2.242759385,428,200.028404033,0.999882996,-0.014038000,-0.005773000,-0.001395000,0.005916928,0.005150344,-0.000734679,0.111488000,-0.279662013,9.797010422,-0.011583815,0.028056609,-0.999539214
2.247977939,429,200.028404033,0.999884009,-0.014027000,-0.005759000,-0.001393000,0.002025716,0.005456126,0.002830557,0.111333996,-0.275824994,9.798655510,-0.011555743,0.028034702,-0.999540154
2.253142636,430,200.028404033,0.999884009,-0.014020000,-0.005751000,-0.001390000,0.001769485,-0.000922895,-0.000502445,0.114104003,-0.279579997,9.800534248,-0.011539641,0.028020759,-0.999540731
2.257717818,431,200.028404033,0.999884009,-0.014017000,-0.005760000,-0.001393000,-0.000163520,-0.004908791,-0.000658548,0.114469998,-0.274277002,9.798488617,-0.011557715,0.028014701,-0.999540692
2.262822354,432,200.028404033,0.999884009,-0.014019000,-0.005771000,-0.001393000,-0.004317002,-0.003900444,-0.001298769,0.120310999,-0.274870008,9.795457840,-0.011579718,0.028018671,-0.999540326
2.267809768,433,200.028404033,0.999882996,-0.014032000,-0.005780000,-0.001398000,-0.005607987,-0.002753745,-0.000080180,0.116485000,-0.278115988,9.797677040,-0.011597880,0.028044555,-0.999539389
2.272533881,434,200.028404033,0.999882996,-0.014042000,-0.005787000,-0.001398000,-0.002119214,-0.001981961,0.000333445,0.108002998,-0.282952994,9.800339699,-0.011611907,0.028064534,-0.999538666
2.277600145,435,200.028404033,0.999882996,-0.014041000,-0.005791000,-0.001395000,0.000799657,-0.001789050,0.001310620,0.113454998,-0.280528992,9.795993805,-0.011619819,0.028062557,-0.999538629
2.282781962,436,200.028404033,0.999882996,-0.014042000,-0.005796000,-0.001395000,-0.001360030,-0.001323954,0.000848963,0.110868998,-0.281302989,9.796962738,-0.011629821,0.028064544,-0.999538457
2.287907522,437,200.028404033,0.999882996,-0.014050000,-0.005800000,-0.001398000,-0.005211361,-0.002460705,-0.002437928,0.115523003,-0.289568007,9.804240227,-0.011637926,0.028080496,-0.999537915
2.292583890,438,200.028404033,0.999882996,-0.014059000,-0.005807000,-0.001401000,-0.001276429,-0.000647779,0.000091630,0.117077999,-0.289923996,9.805666924,-0.011652035,0.028098438,-0.999537247
2.297684618,439,200.028404033,0.999882996,-0.014062000,-0.005804000,-0.001402000,-0.000990160,0.002731371,0.000057648,0.116057001,-0.292328000,9.803707123,-0.011646072,0.028104434,-0.999537148
2.302810082,440,200.028404033,0.999882996,-0.014061000,-0.005796000,-0.001403000,-0.000245550,0.002087902,-0.000536497,0.113250002,-0.289786011,9.803534508,-0.011630099,0.028102446,-0.999537389
2.307917562,441,200.028404033,0.999882996,-0.014056000,-0.005795000,-0.001402000,0.003723468,-0.000652282,0.002192395,0.107524998,-0.289602011,9.803462029,-0.011628057,0.028092461,-0.999537694
2.312568586,442,200.028404033,0.999882996,-0.014056000,-0.005801000,-0.001396000,-0.005594164,-0.003820386,0.002691559,0.105206996,-0.288340986,9.798926353,-0.011639887,0.028092514,-0.999537555
2.317734499,443,200.028404033,0.999882996,-0.014066000,-0.005809000,-0.001391000,-0.001505626,-0.003962718,0.000597391,0.109915003,-0.281203985,9.799246788,-0.011655772,0.028112547,-0.999536806
2.322767770,444,200.028404033,0.999882996,-0.014060000,-0.005822000,-0.001393000,0.004505340,-0.005213997,-0.001033200,0.119232997,-0.274403006,9.801633835,-0.011681809,0.028100490,-0.999536841
2.327810097,445,200.028404033,0.999882996,-0.014059000,-0.005824000,-0.001394000,-0.003504708,0.003838834,-0.001361217,0.114139996,-0.273436010,9.791963577,-0.011685834,0.028098472,-0.999536851
2.332855591,446,200.028404033,0.999882996,-0.014062000,-0.005812000,-0.001397000,-0.000220540,0.004793320,-0.000571700,0.107228003,-0.279866010,9.791889191,-0.011661929,0.028104470,-0.999536962
2.338250308,447,200.028404033,0.999882996,-0.014066000,-0.005803000,-0.001400000,-0.004326182,0.001920107,-0.001994580,0.108889997,-0.281374007,9.804603577,-0.011644027,0.028112459,-0.999536946
2.343405181,448,200.028404033,0.999882996,-0.014080000,-0.005805000,-0.001399000,-0.007079195,-0.002916585,0.001823503,0.114267997,-0.279325008,9.804684639,-0.011648038,0.028140463,-0.999536111
2.347603845,449,200.028404033,0.999881983,-0.014094000,-0.005814000,-0.001401000,-0.004454185,-0.003209975,-0.000945532,0.121252999,-0.285035998,9.805419922,-0.011666119,0.028168382,-0.999535113
2.352846656,450,200.028404033,0.999881983,-0.014101000,-0.005818000,-0.001402000,-0.004222999,-0.000248779,-0.000701186,0.112544999,-0.282884002,9.806196213,-0.011674166,0.028182357,-0.999534625
2.358121978,451,200.028404033,0.999881983,-0.014112000,-0.005819000,-0.001406000,-0.004392330,0.000653818,-0.001105334,0.114327997,-0.283648998,9.804263115,-0.011676309,0.028204307,-0.999533981
2.362848620,452,200.028404033,0.999881983,-0.014118000,-0.005820000,-0.001408000,-0.000209003,-0.001846681,0.000415493,0.119222000,-0.287104994,9.803403854,-0.011678383,0.028216278,-0.999533619
2.367453499,453,200.028404033,0.999881983,-0.014113000,-0.005824000,-0.001404000,0.001604010,-0.000873607,0.000462826,0.118405998,-0.282361001,9.800487518,-0.011686255,0.028206314,-0.999533809
2.372803351,454,200.028404033,0.999881983,-0.014107000,-0.005829000,-0.001407000,0.001279361,-0.002315912,-0.002082352,0.119677998,-0.282422990,9.795192719,-0.011696321,0.028194268,-0.999534031
2.377386310,455,200.028404033,0.999881983,-0.014104000,-0.005835000,-0.001408000,0.000243718,-0.001998926,0.000050353,0.116214000,-0.285100996,9.798567772,-0.011708340,0.028188240,-0.999534060
2.382498398,456,200.028404033,0.999881983,-0.014101000,-0.005840000,-0.001409000,0.000245882,-0.002385219,-0.000894551,0.109929003,-0.281174988,9.805377960,-0.011718358,0.028182214,-0.999534112
2.388150847,457,200.028404033,0.999881983,-0.014103000,-0.005846000,-0.001409000,-0.001532207,-0.002057167,0.000078854,0.117458999,-0.283574998,9.807231903,-0.011730362,0.028186197,-0.999533859
2.392614764,458,200.028404033,0.999881983,-0.014102000,-0.005851000,-0.001411000,-0.000244259,-0.001373469,-0.001502170,0.117843002,-0.283313006,9.801303864,-0.011740415,0.028184160,-0.999533799
2.397707460,459,200.028404033,0.999881983,-0.014096000,-0.005847000,-0.001417000,0.005248013,0.005471084,-0.002232328,0.116200998,-0.283127010,9.797890663,-0.011732568,0.028172103,-0.999534231
2.402785083,460,200.028404033,0.999881983,-0.014083000,-0.005837000,-0.001421000,0.003082827,0.002169584,-0.000144967,0.116690002,-0.288284987,9.799130440,-0.011712646,0.028146087,-0.999535197
2.407871411,461,200.028404033,0.999881983,-0.014079000,-0.005837000,-0.001419000,-0.000484242,-0.001033671,0.001124167,0.113173001,-0.284384012,9.798120499,-0.011712578,0.028138111,-0.999535422
2.412947306,462,200.028404033,0.999881983,-0.014080000,-0.005839000,-0.001420000,-0.000123081,0.000324474,-0.000341997,0.113963000,-0.290843993,9.801793098,-0.011716609,0.028140094,-0.999535319
2.417980321,463,200.028404033,0.999881983,-0.014083000,-0.005836000,-0.001418000,-0.003534327,0.002843682,0.001054371,0.109017998,-0.288372993,9.805044174,-0.011710562,0.028146125,-0.999535220
2.422449517,464,200.028404033,0.999881983,-0.014094000,-0.005832000,-0.001422000,-0.006047601,0.000247767,-0.002938960,0.110261001,-0.287553012,9.804061890,-0.011702707,0.028168087,-0.999534694
2.427573062,465,200.028404033,0.999881983,-0.014101000,-0.005826000,-0.001427000,-0.000371738,0.004911339,0.000046653,0.108214997,-0.286597997,9.803618431,-0.011690869,0.028182043,-0.999534439
2.432664189,466,200.028404033,0.999881983,-0.014102000,-0.005818000,-0.001422000,-0.001394186,0.001946356,0.001723216,0.108786002,-0.281922013,9.796090126,-0.011674733,0.028184125,-0.999534569
2.437763477,467,200.028404033,0.999881983,-0.014102000,-0.005816000,-0.001421000,-0.000321594,0.000466335,-0.000728396,0.111424997,-0.282370985,9.796063423,-0.011670705,0.028184142,-0.999534615
2.442796972,468,200.028404033,0.999881983,-0.014108000,-0.005812000,-0.001423000,-0.005580568,0.002065964,-0.000237696,0.117182001,-0.286260009,9.797183990,-0.011662780,0.028196130,-0.999534370
2.447625247,469,200.028404033,0.999881983,-0.014119000,-0.005806000,-0.001429000,-0.005180626,0.003378905,-0.002904158,0.113595001,-0.280707985,9.799128532,-0.011650982,0.028218074,-0.999533888
2.452696214,470,200.028404033,0.999881983,-0.014125000,-0.005798000,-0.001432000,-0.000802136,0.002988911,-0.001738173,0.115703002,-0.272695005,9.799131393,-0.011635085,0.028230060,-0.999533735
2.457470056,471,200.028404033,0.999881983,-0.014118000,-0.005792000,-0.001438000,0.004513997,0.003737710,-0.000830061,0.114946000,-0.274780989,9.795075417,-0.011623236,0.028216010,-0.999534270
2.462529247,472,200.028404033,0.999881983,-0.014106000,-0.005786000,-0.001438000,0.002828428,0.000653835,0.001109331,0.105469003,-0.284272999,9.800402641,-0.011611203,0.028192030,-0.999535086
2.467583286,473,200.028404033,0.999881983,-0.014101000,-0.005787000,-0.001434000,0.000634340,-0.000187675,0.003087034,0.106616996,-0.279825002,9.805507660,-0.011613076,0.028182074,-0.999535345
2.472678318,474,200.028404033,0.999882996,-0.014094000,-0.005788000,-0.001429000,0.004274207,-0.001845790,0.000107146,0.111436002,-0.282160997,9.804066658,-0.011614926,0.028168159,-0.999535716
2.477883912,475,200.028404033,0.999882996,-0.014084000,-0.005794000,-0.001430000,0.001829768,-0.002206393,0.000048834,0.114107996,-0.279626995,9.798014641,-0.011626924,0.028148134,-0.999536141
2.484202740,476,200.028404033,0.999882996,-0.014083000,-0.005800000,-0.001432000,0.000055554,-0.002953795,-0.000364460,0.114836998,-0.279213011,9.804546356,-0.011638976,0.028146093,-0.999536058
2.487589871,477,200.028404033,0.999882996,-0.014081000,-0.005802000,-0.001431000,0.001110570,0.001856908,0.001126278,0.106937997,-0.280413002,9.801520348,-0.011642942,0.028142100,-0.999536124
2.492638469,478,200.028404033,0.999882996,-0.014077000,-0.005800000,-0.001432000,-0.000031940,-0.000903766,-0.002602408,0.108976997,-0.283993989,9.799626350,-0.011638959,0.028134095,-0.999536396
2.497726653,479,200.028404033,0.999882996,-0.014080000,-0.005804000,-0.001435000,-0.003552338,-0.000986320,0.001640191,0.115590997,-0.284850001,9.796224594,-0.011647051,0.028140048,-0.999536134
2.502793620,480,200.028404033,0.999881983,-0.014089000,-0.005804000,-0.001437000,-0.003846723,0.001381725,-0.001974735,0.118419997,-0.286927998,9.800518990,-0.011647122,0.028157995,-0.999535627
2.507856971,481,200.028404033,0.999881983,-0.014096000,-0.005799000,-0.001439000,-0.003562147,0.001769502,-0.000653032,0.110956997,-0.286716014,9.797214508,-0.011637200,0.028171984,-0.999535349
2.512877090,482,200.028404033,0.999881983,-0.014104000,-0.005797000,-0.001438000,-0.002611658,0.000817879,0.000679160,0.109350003,-0.281013012,9.796417236,-0.011633195,0.028187999,-0.999534944
2.517993178,483,200.028404033,0.999881983,-0.014109000,-0.005793000,-0.001441000,-0.002747305,0.000889978,-0.001088684,0.114564002,-0.280588984,9.796994209,-0.011625295,0.028197974,-0.999534755
2.522721323,484,200.028404033,0.999881983,-0.014116000,-0.005795000,-0.001439000,-0.003369254,-0.000815418,0.001821391,0.116048999,-0.286388010,9.798935890,-0.011629258,0.028211991,-0.999534313
2.527904612,485,200.028404033,0.999881983,-0.014126000,-0.005796000,-0.001435000,-0.003965964,0.001010005,0.002247844,0.112181000,-0.285216987,9.808424950,-0.011631173,0.028232031,-0.999533725
2.532488531,486,200.028404033,0.999881983,-0.014127000,-0.005790000,-0.001432000,0.002907370,0.003088116,0.000234799,0.115966000,-0.278813988,9.804911613,-0.011619093,0.028234083,-0.999533808
2.537630220,487,200.028404033,0.999881983,-0.014117000,-0.005783000,-0.001430000,0.003222052,0.002528650,0.000972515,0.121803999,-0.284123003,9.800312042,-0.011605010,0.028214128,-0.999534534
2.542716899,488,200.028404033,0.999881983,-0.014109000,-0.005782000,-0.001425000,0.001274195,-0.001950842,0.002827050,0.121878996,-0.285537988,9.799464226,-0.011602845,0.028198190,-0.999535009
2.547813467,489,200.028404033,0.999881983,-0.014107000,-0.005787000,-0.001422000,0.000979583,-0.001965049,0.001273253,0.113081999,-0.289115995,9.794251442,-0.011612754,0.028194212,-0.999535006
2.552907923,490,200.028404033,0.999881983,-0.014104000,-0.005792000,-0.001419000,0.000552641,-0.001272363,0.000707958,0.112313002,-0.287892014,9.800682068,-0.011622660,0.028188234,-0.999535060
2.557507778,491,200.028404033,0.999881983,-0.014097000,-0.005793000,-0.001417000,0.003156864,0.000235794,0.000367113,0.114288002,-0.285910010,9.802619934,-0.011624584,0.028174254,-0.999535432
2.562655707,492,200.028404033,0.999881983,-0.014092000,-0.005795000,-0.001414000,0.000775764,-0.001488661,0.002443391,0.116639003,-0.284788996,9.807012558,-0.011628485,0.028164286,-0.999535667
2.567795923,493,200.028404033,0.999882996,-0.014088000,-0.005799000,-0.001407000,0.002668015,-0.001450648,0.002044391,0.116527997,-0.287229985,9.809704781,-0.011636287,0.028156385,-0.999535800
2.572916363,494,200.028404033,0.999882996,-0.014078000,-0.005801000,-0.001404000,0.002107398,0.000311698,0.000619156,0.117624998,-0.284837991,9.800005913,-0.011640174,0.028136416,-0.999536317
2.577430841,495,200.028404033,0.999882996,-0.014081000,-0.005803000,-0.001403000,-0.005178025,-0.001662182,0.000171042,0.115811996,-0.285775006,9.797069550,-0.011644154,0.028142422,-0.999536101
2.582478960,496,200.028404033,0.999881983,-0.014089000,-0.005804000,-0.001407000,-0.001805787,0.000840568,-0.001077217,0.114909001,-0.285932988,9.799551964,-0.011646276,0.028158343,-0.999535627
2.587564103,497,200.028404033,0.999881983,-0.014091000,-0.005808000,-0.001407000,-0.001987546,-0.003437304,0.000174463,0.113673002,-0.291655004,9.804357529,-0.011654281,0.028162330,-0.999535422
2.592818690,498,200.028404033,0.999881983,-0.014098000,-0.005816000,-0.001406000,-0.003294414,-0.002694876,-0.000388109,0.111965001,-0.285257012,9.808034897,-0.011670271,0.028176317,-0.999534841
2.598023451,499,200.028404033,0.999881983,-0.014105000,-0.005821000,-0.001405000,-0.002686324,-0.001013530,0.000986006,0.116461001,-0.275988996,9.803685188,-0.011680261,0.028190313,-0.999534330
2.602630571,500,200.000400001,0.999881983,-0.014109000,-0.005822000,-0.001408000,-0.000991417,0.000745378,-0.002130663,0.118551999,-0.278360993,9.797124863,-0.011682357,0.028198274,-0.999534081
2.607703842,501,200.000400001,0.999881983,-0.014109000,-0.005825000,-0.001414000,-0.000210539,-0.004209071,-0.001792872,0.121102996,-0.282029986,9.799909592,-0.011688525,0.028198196,-0.999534011
2.612748697,502,200.000400001,0.999881983,-0.014109000,-0.005835000,-0.001414000,-0.001516499,-0.003018564,0.001275556,0.117481001,-0.278780013,9.803495407,-0.011708523,0.028198168,-0.999533778
2.617819760,503,200.000400001,0.999881983,-0.014111000,-0.005840000,-0.001409000,-0.000526688,0.000048381,0.003358520,0.116737999,-0.281242013,9.802213669,-0.011718386,0.028202212,-0.999533548
2.622909032,504,200.000400001,0.999881983,-0.014108000,-0.005840000,-0.001404000,0.001415689,-0.000553182,-0.000160431,0.113811001,-0.284074992,9.803550720,-0.011718236,0.028196272,-0.999533717
2.627549143,505,200.000400001,0.999881983,-0.014105000,-0.005840000,-0.001408000,-0.000829049,0.000872682,-0.001698048,0.114106998,-0.289287984,9.798405647,-0.011718341,0.028190224,-0.999533887
2.632527565,506,200.000400001,0.999881983,-0.014109000,-0.005839000,-0.001408000,-0.001603783,0.000172613,0.002888590,0.117469996,-0.291094989,9.796973228,-0.011716353,0.028198226,-0.999533684
2.637633541,507,200.000400001,0.999881983,-0.014109000,-0.005839000,-0.001402000,0.000004835,0.001096747,0.001619823,0.125083998,-0.291972011,9.804985046,-0.011716183,0.028198296,-0.999533684
2.642728829,508,200.000400001,0.999881983,-0.014111000,-0.005835000,-0.001399000,-0.003737221,0.002019835,0.001311406,0.115630001,-0.292430013,9.809291840,-0.011708105,0.028202343,-0.999533665
2.648436223,509,200.000400001,0.999881983,-0.014120000,-0.005837000,-0.001401000,-0.003660723,-0.002885396,-0.000738850,0.112859003,-0.288617998,9.804513931,-0.011712186,0.028220313,-0.999533110
2.652478852,510,200.000400001,0.999881983,-0.014126000,-0.005842000,-0.001403000,-0.002393492,-0.001221730,0.000357723,0.119240999,-0.286794990,9.806449890,-0.011722258,0.028232273,-0.999532654
2.657926402,511,200.000400001,0.999881983,-0.014132000,-0.005846000,-0.001400000,-0.001985295,-0.000702757,0.002788687,0.118175998,-0.285378009,9.810325623,-0.011730189,0.028244295,-0.999532222
2.663011066,512,200.000400001,0.999881983,-0.014136000,-0.005843000,-0.001399000,-0.002027374,0.001760706,-0.001028889,0.114243999,-0.281910002,9.809773445,-0.011724173,0.028252314,-0.999532066
2.667502471,513,200.000400001,0.999881983,-0.014136000,-0.005841000,-0.001403000,0.000507297,0.000549325,-0.002192518,0.113651998,-0.280238986,9.799638748,-0.011720287,0.028252273,-0.999532112
2.672587359,514,200.000400001,0.999881983,-0.014137000,-0.005844000,-0.001404000,-0.002218680,-0.003192539,0.002062229,0.118918002,-0.282572001,9.799494743,-0.011726317,0.028254253,-0.999531986
2.677685078,515,200.000400001,0.999880970,-0.014139000,-0.005854000,-0.001398000,-0.000247505,-0.006168099,0.001996761,0.118363000,-0.283942997,9.801978111,-0.011746139,0.028258267,-0.999531639
2.682613387,516,200.000400001,0.999880970,-0.014139000,-0.005865000,-0.001398000,-0.000012165,-0.001158323,-0.000373588,0.118309997,-0.281406999,9.803563118,-0.011768137,0.028258236,-0.999531381
2.687432094,517,200.000400001,0.999880970,-0.014143000,-0.005865000,-0.001399000,-0.004244204,-0.001522346,0.000307841,0.114542998,-0.277626008,9.804884911,-0.011768176,0.028266224,-0.999531155
2.693097664,518,200.000400001,0.999880970,-0.014149000,-0.005869000,-0.001395000,-0.002428102,-0.001267301,0.000517420,0.116132997,-0.280728996,9.801057816,-0.011776078,0.028278257,-0.999530721
2.697733775,519,200.000400001,0.999880970,-0.014152000,-0.005873000,-0.001395000,0.000384199,-0.001258278,0.000349572,0.113810003,-0.277909011,9.791438103,-0.011784086,0.028284245,-0.999530458
2.702826567,520,200.000400001,0.999880970,-0.014156000,-0.005876000,-0.001395000,-0.004770980,-0.001505800,-0.000890799,0.110841997,-0.284574002,9.796881676,-0.011790096,0.028292235,-0.999530161
2.707927007,521,200.000400001,0.999880970,-0.014160000,-0.005874000,-0.001397000,0.000692529,0.003016627,0.000169873,0.111574002,-0.289651990,9.804161072,-0.011786165,0.028300217,-0.999529981
2.712711793,522,200.000400001,0.999880970,-0.014153000,-0.005868000,-0.001398000,0.002335303,0.001270146,-0.001421431,0.113757998,-0.285710990,9.803591728,-0.011774175,0.028286224,-0.999530518
2.717872458,523,200.000400001,0.999880970,-0.014151000,-0.005867000,-0.001400000,-0.000691115,-0.000198514,-0.000666332,0.115065001,-0.284388989,9.808145523,-0.011772227,0.028282204,-0.999530655
2.722949665,524,200.000400001,0.999880970,-0.014155000,-0.005873000,-0.001400000,-0.004415491,-0.003845711,0.000681603,0.121396996,-0.284350008,9.809824944,-0.011784235,0.028290185,-0.999530288
2.727527920,525,200.000400001,0.999880970,-0.014159000,-0.005877000,-0.001399000,-0.000666384,0.000615665,0.002639008,0.119810000,-0.274798006,9.803907394,-0.011792217,0.028298185,-0.999529967
2.732627272,526,200.000400001,0.999880970,-0.014163000,-0.005875000,-0.001395000,-0.002367382,0.001620591,0.000568873,0.119622998,-0.277864009,9.802014351,-0.011788116,0.028306236,-0.999529788
2.737678047,527,200.000400001,0.999880970,-0.014170000,-0.005874000,-0.001393000,-0.003776718,-0.002873266,0.001609543,0.110027999,-0.283968002,9.798073769,-0.011786079,0.028320262,-0.999529414
2.742719926,528,200.000400001,0.999880970,-0.014178000,-0.005882000,-0.001390000,-0.004029267,-0.001724368,-0.002535789,0.108639002,-0.280535996,9.807177544,-0.011802015,0.028336274,-0.999528773
2.747875822,529,200.000400001,0.999880970,-0.014190000,-0.005884000,-0.001397000,-0.005572871,-0.001182391,-0.000476754,0.120095000,-0.277249992,9.807635307,-0.011806246,0.028360181,-0.999528045
2.752402364,530,200.000400001,0.999880016,-0.014203000,-0.005893000,-0.001394000,-0.003570752,-0.004790196,0.002716273,0.123787001,-0.285176009,9.811214447,-0.011824184,0.028386162,-0.999527095
2.757504628,531,200.000400001,0.999880016,-0.014210000,-0.005903000,-0.001390000,-0.003551588,-0.003196256,0.000348944,0.124486998,-0.287598014,9.810688972,-0.011844087,0.028400179,-0.999526461
2.762608268,532,200.000400001,0.999880016,-0.014211000,-0.005907000,-0.001392000,0.002991233,0.002283100,-0.000294734,0.121267997,-0.282718986,9.813603401,-0.011852146,0.028402145,-0.999526310
2.767724868,533,200.000400001,0.999880016,-0.014201000,-0.005898000,-0.001390000,0.002847330,0.003444425,-0.000045047,0.117990002,-0.276791006,9.809677124,-0.011834064,0.028382196,-0.999527090
2.772830940,534,200.000400001,0.999880970,-0.014192000,-0.005897000,-0.001392000,0.001610241,-0.000645842,0.000325242,0.121614002,-0.283408999,9.807790756,-0.011832107,0.028364204,-0.999527625
2.777910515,535,200.000400001,0.999880970,-0.014187000,-0.005903000,-0.001390000,0.001705745,-0.003514692,0.000147620,0.118215002,-0.287479013,9.805706978,-0.011844035,0.028354212,-0.999527767
2.785650296,536,200.000400001,0.999880970,-0.014186000,-0.005907000,-0.001392000,-0.000000716,0.001367500,-0.000272987,0.111854002,-0.284332007,9.803595543,-0.011852088,0.028352177,-0.999527730
2.787917951,537,200.000400001,0.999880970,-0.014178000,-0.005905000,-0.001389000,0.003871385,0.001325438,0.002852985,0.112294003,-0.277166009,9.801133156,-0.011847981,0.028336221,-0.999528231
2.792683953,538,200.000400001,0.999880970,-0.014168000,-0.005908000,-0.001383000,0.003487534,-0.002254756,-0.000414149,0.116287999,-0.283758998,9.802309990,-0.011853782,0.028316285,-0.999528727
2.798277138,539,200.000400001,0.999880970,-0.014158000,-0.005915000,-0.001384000,0.003870774,-0.003359130,0.001453580,0.119153999,-0.288515985,9.796019554,-0.011867781,0.028296257,-0.999529128
2.802938434,540,200.000400001,0.999880970,-0.014151000,-0.005920000,-0.001379000,0.001124411,-0.000313915,0.001548107,0.115727000,-0.282352000,9.804675102,-0.011877619,0.028282305,-0.999529406
2.807529233,541,200.000400001,0.999880970,-0.014152000,-0.005919000,-0.001377000,-0.002395604,0.001953111,0.001624099,0.115958996,-0.282611996,9.812009811,-0.011875566,0.028284329,-0.999529373
2.812671785,542,200.000400001,0.999880970,-0.014150000,-0.005913000,-0.001373000,0.002180457,0.001650034,0.002022191,0.115225002,-0.281821012,9.806267738,-0.011863448,0.028280395,-0.999529628
2.821764262,543,200.000400001,0.999880970,-0.014148000,-0.005911000,-0.001372000,-0.001053690,0.001354393,-0.001978627,0.119635001,-0.279918998,9.807939529,-0.011859415,0.028276412,-0.999529788
2.823205599,544,200.000400001,0.999880970,-0.014147000,-0.005911000,-0.001378000,-0.000497716,-0.000722008,-0.001160400,0.113049001,-0.285342008,9.801295280,-0.011859582,0.028274342,-0.999529845
2.827568330,545,200.000400001,0.999880970,-0.014150000,-0.005913000,-0.001380000,-0.003168506,0.000801630,-0.000541628,0.113792002,-0.280833989,9.793844223,-0.011863647,0.028280312,-0.999529628
2.832777668,546,200.000400001,0.999880970,-0.014151000,-0.005907000,-0.001382000,0.000423347,0.003538097,0.000299115,0.113620996,-0.279359996,9.791885376,-0.011851707,0.028282305,-0.999529713
2.837517461,547,200.000400001,0.999880970,-0.014145000,-0.005900000,-0.001381000,0.003065008,0.001506341,0.001069817,0.110109001,-0.279653996,9.799952507,-0.011837663,0.028270337,-0.999530218
2.843768609,548,200.000400001,0.999880970,-0.014141000,-0.005900000,-0.001378000,-0.002709833,-0.000782222,0.001570604,0.112934999,-0.279222995,9.807091713,-0.011837568,0.028262373,-0.999530444
2.849897098,549,200.000400001,0.999880970,-0.014154000,-0.005904000,-0.001381000,-0.007649900,-0.002420475,-0.001817673,0.116584003,-0.282891005,9.800592422,-0.011845687,0.028288324,-0.999529614
2.852881630,550,200.000400001,0.999880970,-0.014171000,-0.005907000,-0.001383000,-0.006347151,0.001180192,-0.001515661,0.115905002,-0.283248007,9.802426338,-0.011851791,0.028322287,-0.999528580
2.857889780,551,200.000400001,0.999880970,-0.014178000,-0.005904000,-0.001386000,-0.001382982,0.000296793,-0.000534018,0.117270000,-0.287869990,9.799921036,-0.011845895,0.028336260,-0.999528254
2.862567524,552,200.000400001,0.999880970,-0.014182000,-0.005903000,-0.001387000,-0.001941452,0.000568017,-0.000054629,0.120738000,-0.285986006,9.793919563,-0.011843936,0.028344250,-0.999528051
2.867383159,553,200.000400001,0.999880970,-0.014186000,-0.005903000,-0.001385000,-0.003005021,-0.000027402,0.001292957,0.116033003,-0.280806005,9.797218323,-0.011843890,0.028352271,-0.999527824
2.873183675,554,200.000400001,0.999880970,-0.014192000,-0.005905000,-0.001388000,-0.002869618,-0.001344183,-0.003054134,0.116264001,-0.274154007,9.803953171,-0.011847991,0.028364229,-0.999527436
2.877690024,555,200.000400001,0.999880970,-0.014190000,-0.005906000,-0.001391000,0.002258124,0.002264966,0.001135057,0.117841996,-0.278225988,9.809879303,-0.011850070,0.028360191,-0.999527526
2.884281658,556,200.000400001,0.999880970,-0.014187000,-0.005893000,-0.001387000,-0.002207213,0.007293521,0.000444116,0.120062001,-0.283169001,9.808107376,-0.011823952,0.028354275,-0.999528003
2.887717493,557,200.000400001,0.999880970,-0.014192000,-0.005882000,-0.001387000,-0.002891958,0.000792938,0.000772657,0.117120996,-0.283977985,9.797707558,-0.011801969,0.028364305,-0.999527978
2.892793132,558,200.000400001,0.999880970,-0.014196000,-0.005885000,-0.001387000,0.000237033,-0.002185501,-0.002629565,0.119501002,-0.284680992,9.795953751,-0.011807978,0.028372296,-0.999527681
2.897892068,559,200.000400001,0.999880970,-0.014187000,-0.005888000,-0.001391000,0.003788185,0.000963492,-0.000673610,0.114409998,-0.275857985,9.802150726,-0.011814067,0.028354242,-0.999528121
2.902406930,560,200.000400001,0.999880970,-0.014179000,-0.005885000,-0.001392000,0.002752698,0.001555507,-0.001355266,0.105292998,-0.272394985,9.806227684,-0.011808073,0.028338240,-0.999528645
2.907482281,561,200.000400001,0.999880970,-0.014170000,-0.005884000,-0.001400000,0.002819894,-0.001924767,-0.003738059,0.108699001,-0.277814001,9.799945831,-0.011806275,0.028320152,-0.999529179
2.913071497,562,200.000400001,0.999880970,-0.014163000,-0.005888000,-0.001405000,0.002829266,0.000053442,-0.001037773,0.117377996,-0.285295993,9.798529625,-0.011814397,0.028306082,-0.999529482
2.918242210,563,200.000400001,0.999880970,-0.014162000,-0.005890000,-0.001408000,-0.004300055,-0.003099705,-0.001204399,0.110566996,-0.281491995,9.800387383,-0.011818478,0.028304043,-0.999529491
2.922910259,564,200.000400001,0.999880970,-0.014174000,-0.005900000,-0.001410000,-0.003535688,-0.003087400,0.000094091,0.114992000,-0.280497998,9.795413017,-0.011838566,0.028327988,-0.999528575
2.927400992,565,200.000400001,0.999880970,-0.014176000,-0.005901000,-0.001410000,0.000455060,0.000645388,-0.001451189,0.112672001,-0.276937008,9.809813499,-0.011840572,0.028331984,-0.999528438
2.932907359,566,200.000400001,0.999880970,-0.014175000,-0.005899000,-0.001411000,-0.000157882,0.000318749,0.002427194,0.107658997,-0.279440999,9.809718132,-0.011836597,0.028329978,-0.999528542
2.937969782,567,200.000400001,0.999880970,-0.014176000,-0.005904000,-0.001409000,-0.002404680,-0.003545200,-0.001040286,0.114596002,-0.278784990,9.804365158,-0.011846542,0.028331988,-0.999528368
2.942518436,568,200.000400001,0.999880970,-0.014182000,-0.005908000,-0.001409000,-0.002509330,0.000545450,0.001978976,0.104989998,-0.274316996,9.805200577,-0.011854558,0.028343976,-0.999527933
2.947636156,569,200.000400001,0.999880016,-0.014187000,-0.005913000,-0.001405000,-0.000988502,-0.004080213,0.000697346,0.098330997,-0.278326005,9.799989700,-0.011864447,0.028353980,-0.999527531
2.952769973,570,200.000400001,0.999880970,-0.014181000,-0.005920000,-0.001405000,0.002609232,-0.001621306,-0.000540389,0.110969998,-0.284770012,9.804651260,-0.011878439,0.028341989,-0.999527706
2.957864716,571,200.000400001,0.999880970,-0.014169000,-0.005917000,-0.001407000,0.005421656,0.003823493,-0.000668391,0.118345000,-0.290024996,9.804367065,-0.011872463,0.028317977,-0.999528457
2.962729408,572,200.000400001,0.999880970,-0.014164000,-0.005912000,-0.001408000,-0.001656841,0.000836013,0.000357566,0.118267998,-0.282893986,9.806197166,-0.011862478,0.028307980,-0.999528859
2.968383777,573,200.000400001,0.999880970,-0.014167000,-0.005914000,-0.001406000,-0.000642089,-0.002825479,0.001088370,0.123305000,-0.273344010,9.799542427,-0.011866429,0.028313996,-0.999528641
2.973498809,574,200.000400001,0.999880970,-0.014167000,-0.005919000,-0.001410000,0.000004782,-0.001389299,-0.001641116,0.124762997,-0.272287011,9.797670364,-0.011876542,0.028313935,-0.999528523
2.977628256,575,200.000400001,0.999880970,-0.014160000,-0.005925000,-0.001413000,0.003304275,-0.001373539,-0.001280548,0.116181999,-0.279002994,9.795610428,-0.011888606,0.028299885,-0.999528778
2.984227634,576,200.000400001,0.999880970,-0.014153000,-0.005929000,-0.001414000,0.000576657,-0.000954905,0.000691028,0.115667000,-0.288314998,9.801063538,-0.011896614,0.028285863,-0.999529079
2.988219063,577,200.000400001,0.999880970,-0.014154000,-0.005928000,-0.001419000,-0.001626804,0.002070536,-0.002259451,0.112874001,-0.289707989,9.803858757,-0.011894758,0.028287807,-0.999529046
2.992754693,578,200.000400001,0.999880970,-0.014157000,-0.005922000,-0.001420000,-0.002250428,0.001957648,-0.000406522,0.108572997,-0.290607989,9.806427002,-0.011882796,0.028293811,-0.999529019
2.999053041,579,200.000400001,0.999880970,-0.014162000,-0.005916000,-0.001420000,-0.001017265,0.002601012,0.000957051,0.107900999,-0.288630992,9.806547165,-0.011870811,0.028303828,-0.999528877
3.002514285,580,200.000400001,0.999880970,-0.014164000,-0.005912000,-0.001417000,-0.001324391,0.000154758,0.000929440,0.107291996,-0.283573985,9.802587509,-0.011862733,0.028307873,-0.999528859
3.007621285,581,200.000400001,0.999880970,-0.014167000,-0.005913000,-0.001420000,-0.002094046,-0.000199386,-0.003224443,0.108294003,-0.283686996,9.797166824,-0.011864827,0.028313834,-0.999528665
3.012756989,582,200.000400001,0.999880970,-0.014181000,-0.005916000,-0.001424000,-0.009136066,-0.001945763,-0.000283633,0.108868003,-0.289730012,9.797450066,-0.011870979,0.028341776,-0.999527800
3.017898422,583,200.000400001,0.999880016,-0.014202000,-0.005920000,-0.001425000,-0.007661158,-0.001788718,-0.000717627,0.112573996,-0.286255985,9.800917625,-0.011879055,0.028383719,-0.999526514
3.022501797,584,200.000400001,0.999880016,-0.014207000,-0.005922000,-0.001425000,0.001261856,0.001945798,0.001049885,0.107807003,-0.282498002,9.803209305,-0.011883069,0.028393713,-0.999526182
3.027573084,585,200.000400001,0.999880016,-0.014200000,-0.005916000,-0.001426000,0.001197872,0.001436528,-0.001946182,0.111819997,-0.280535012,9.806758881,-0.011871079,0.028379720,-0.999526722
3.032774870,586,200.000400001,0.999880016,-0.014199000,-0.005914000,-0.001433000,-0.001713686,0.001549870,-0.002051966,0.117413998,-0.277222008,9.802582741,-0.011867275,0.028377643,-0.999526826
3.037929870,587,200.000400001,0.999880016,-0.014200000,-0.005909000,-0.001433000,0.001418289,0.001865111,0.001946915,0.114017002,-0.280469000,9.798207283,-0.011857279,0.028379657,-0.999526887
3.042907556,588,200.000400001,0.999880016,-0.014196000,-0.005909000,-0.001431000,-0.000664482,-0.001107499,0.000070092,0.110463001,-0.287555993,9.798468590,-0.011857211,0.028371682,-0.999527115
3.048679591,589,200.000400001,0.999880016,-0.014198000,-0.005910000,-0.001437000,-0.000705427,0.000231553,-0.003442871,0.112622000,-0.287759006,9.801931381,-0.011859387,0.028375607,-0.999526977
3.052891152,590,200.000400001,0.999880016,-0.014205000,-0.005914000,-0.001441000,-0.004268133,-0.003166935,0.000064734,0.114155002,-0.282885998,9.802660942,-0.011867519,0.028389548,-0.999526485
3.058356430,591,200.000400001,0.999880016,-0.014201000,-0.005913000,-0.001441000,0.003709785,0.001958399,-0.000546951,0.111304998,-0.281230986,9.805373192,-0.011865509,0.028381552,-0.999526736
3.062558518,592,200.000400001,0.999880016,-0.014187000,-0.005913000,-0.001441000,0.005894710,-0.002495925,0.000347338,0.112217002,-0.287066996,9.805153847,-0.011865468,0.028353554,-0.999527531
3.067702479,593,200.000400001,0.999880970,-0.014176000,-0.005924000,-0.001442000,0.003425313,-0.004421408,-0.000392437,0.114551000,-0.287041992,9.795741081,-0.011887473,0.028331540,-0.999527895
3.072833703,594,200.000400001,0.999880970,-0.014166000,-0.005925000,-0.001444000,0.004236089,0.001569016,-0.000134111,0.114197999,-0.287932009,9.797429085,-0.011889501,0.028311517,-0.999528438
3.077512056,595,200.000400001,0.999880970,-0.014160000,-0.005921000,-0.001441000,0.000723823,0.003237324,0.001549975,0.117017001,-0.292510003,9.803057671,-0.011881400,0.028299564,-0.999528872
3.082568143,596,200.000400001,0.999880970,-0.014160000,-0.005910000,-0.001439000,-0.001113852,0.005776656,0.000113446,0.114412002,-0.287485987,9.797754288,-0.011859345,0.028299620,-0.999529133
3.087730727,597,200.000400001,0.999880970,-0.014158000,-0.005898000,-0.001443000,0.002118481,0.002769890,-0.002572563,0.110187002,-0.280378014,9.799980164,-0.011835456,0.028295608,-0.999529529
3.092713437,598,200.000400001,0.999880970,-0.014150000,-0.005895000,-0.001445000,0.002376597,-0.000113795,0.001000807,0.107895002,-0.278638989,9.803921700,-0.011829490,0.028279595,-0.999530053
3.098029817,599,200.000400001,0.999880970,-0.014147000,-0.005893000,-0.001445000,-0.000228568,0.001685342,-0.000530336,0.110399000,-0.285338998,9.810779572,-0.011825482,0.028273602,-0.999530270
3.102654344,600,200.015601217,0.999880970,-0.014151000,-0.005894000,-0.001446000,-0.004035533,-0.002697529,0.000134617,0.110129997,-0.283693999,9.803318024,-0.011827522,0.028281587,-0.999530020
3.107753056,601,200.015601217,0.999880970,-0.014162000,-0.005894000,-0.001448000,-0.002372478,0.002712364,-0.000755152,0.111245997,-0.281679988,9.805401802,-0.011827610,0.028303560,-0.999529397
3.112789431,602,200.015601217,0.999880970,-0.014154000,-0.005892000,-0.001448000,0.003659153,-0.000950471,0.000381407,0.112371996,-0.284305006,9.800723076,-0.011823588,0.028287568,-0.999529897
3.117715115,603,200.015601217,0.999880970,-0.014147000,-0.005891000,-0.001449000,0.001344567,0.000574562,-0.000178600,0.113623999,-0.286480010,9.799304008,-0.011821595,0.028273561,-0.999530317
3.122801251,604,200.015601217,0.999880970,-0.014146000,-0.005896000,-0.001445000,0.000494033,-0.002326751,0.002810661,0.112006001,-0.285030991,9.804999352,-0.011831479,0.028271593,-0.999530256
3.127856890,605,200.015601217,0.999880970,-0.014144000,-0.005896000,-0.001446000,0.001990339,0.002425065,-0.003170251,0.113403000,-0.285486996,9.801209450,-0.011831501,0.028267581,-0.999530369
3.132471753,606,200.015601217,0.999880970,-0.014133000,-0.005891000,-0.001454000,0.005721416,0.001331581,-0.002876948,0.115445003,-0.281217992,9.798878670,-0.011821696,0.028245504,-0.999531109
3.137427135,607,200.015601217,0.999880970,-0.014117000,-0.005891000,-0.001457000,0.002671645,-0.000660520,-0.000694938,0.109955996,-0.280965000,9.797645569,-0.011821734,0.028213472,-0.999532013
3.142535575,608,200.015601217,0.999881983,-0.014116000,-0.005890000,-0.001456000,-0.002406408,0.002194472,0.000982341,0.116155997,-0.286983013,9.807099342,-0.011819716,0.028211517,-0.999532093
3.148051510,609,200.015601217,0.999881983,-0.014120000,-0.005886000,-0.001452000,-0.001204242,0.000913331,0.002047132,0.112122998,-0.286624998,9.799157143,-0.011811615,0.028219575,-0.999531961
3.152602116,610,200.015601217,0.999880970,-0.014120000,-0.005885000,-0.001450000,-0.000951850,-0.001726968,-0.001597727,0.110629998,-0.286377996,9.799676895,-0.011809547,0.028219573,-0.999531985
3.157677883,611,200.015601217,0.999880970,-0.014123000,-0.005891000,-0.001456000,-0.001902706,-0.000399523,-0.002696935,0.115235999,-0.289128989,9.802196503,-0.011821724,0.028225484,-0.999531674
3.162749491,612,200.015601217,0.999880970,-0.014129000,-0.005885000,-0.001462000,-0.002871450,0.004626938,-0.001385425,0.112512000,-0.288883001,9.802422523,-0.011809912,0.028237428,-0.999531476
3.167530949,613,200.015601217,0.999880970,-0.014135000,-0.005876000,-0.001462000,-0.001606331,0.001903456,0.001727527,0.109811999,-0.291236013,9.806201935,-0.011791932,0.028249454,-0.999531349
3.172625469,614,200.015601217,0.999880970,-0.014132000,-0.005875000,-0.001457000,0.001490529,-0.001006898,0.002926638,0.113792002,-0.286796987,9.802777290,-0.011789782,0.028243515,-0.999531542
3.177658131,615,200.015601217,0.999881983,-0.014128000,-0.005874000,-0.001451000,0.000337843,0.002698017,0.001133661,0.110421002,-0.280923009,9.802607536,-0.011787613,0.028235618,-0.999531792
3.182856557,616,200.015601217,0.999881983,-0.014127000,-0.005871000,-0.001450000,0.000409891,-0.000976756,-0.000275378,0.112837002,-0.278824985,9.807319641,-0.011781582,0.028233640,-0.999531918
3.187395195,617,200.015601217,0.999881983,-0.014117000,-0.005872000,-0.001449000,0.004550300,-0.000010961,0.000823708,0.116922997,-0.284523010,9.808547020,-0.011783525,0.028213650,-0.999532460
3.193015195,618,200.015601217,0.999881983,-0.014105000,-0.005871000,-0.001447000,0.005017298,0.000650275,-0.000025831,0.115933001,-0.286289006,9.800644875,-0.011781434,0.028189679,-0.999533161
3.197541385,619,200.015601217,0.999881983,-0.014088000,-0.005873000,-0.001449000,0.007119495,-0.000602191,0.000343952,0.110340998,-0.283499002,9.802298546,-0.011785440,0.028155655,-0.999534072
3.202636769,620,200.015601217,0.999881983,-0.014072000,-0.005875000,-0.001446000,0.005293689,-0.001584619,0.001368635,0.110647999,-0.282202005,9.800175667,-0.011789309,0.028123688,-0.999534926
3.208521350,621,200.015601217,0.999881983,-0.014065000,-0.005882000,-0.001441000,0.000231762,-0.002677108,0.000239232,0.101585001,-0.277067989,9.802797318,-0.011803147,0.028109729,-0.999535156
